flight,orig_index,time,GPS_TOW,navalt,alt,ax,ay,az,ias,h,navvn,navve,navvd,vn,ve,vd,p,q,r,label
104,6701,134.0200043,580484,260.4184131,260.229248,2.936736584,0.6464964151,-8.071744919,-0.3586889207,5.220543861,-0.8500090837,-0.7094760537,0.7388378382,-0.929196775,-0.3961479664,0.7854842544,0.01886524074,0.06096035615,0.05753212795,0
104,6702,134.0399933,580484,260.4036363,260.229248,3.100139856,0.2543289661,-7.712257862,-0.3586889207,8.992571831,-0.8316871524,-0.7309710383,0.7651753426,-0.929196775,-0.3961479664,0.7854842544,0.02148323506,0.09586694092,0.0645134449,0
104,6703,134.0599976,580484,260.3883328,260.229248,3.165501118,0.1889677346,-8.137105942,-1.342088342,8.992571831,-0.8210155964,-0.7573745847,0.7975932956,-0.929196775,-0.3961479664,0.7854842544,0.04417251423,0.1351368427,0.08283939958,0
104,6704,134.0800018,580484,260.372381,260.229248,3.230862141,0.05824525654,-8.267827988,-1.014526486,12.62081528,-0.8113156557,-0.7829115987,0.8213589191,-0.929196775,-0.3961479664,0.7854842544,0.04155452177,0.09673960507,0.08807539195,0
104,6705,134.1000061,580484,260.3559538,260.229248,3.263542891,0.05824525654,-8.169786453,-0.8786039948,13.49178219,-0.8038843274,-0.8087846637,0.8421542048,-0.929196775,-0.3961479664,0.7854842544,0.07209778577,0.06706900895,0.1020380259,0
104,6706,134.1199951,580484,260.3391107,260.229248,3.557668447,-0.137838468,-8.235147476,-2.152122498,14.36282349,-0.7962139845,-0.8353816867,0.8646712303,-0.929196775,-0.3961479664,0.7854842544,0.04417251423,0.03303508833,0.1151279956,0
104,6707,134.1399994,580484,260.3218173,260.229248,4.1459198,0.05824525654,-8.659996033,-0.3586889207,3.335044384,-0.7917276025,-0.8673588634,0.8844439983,-0.929196775,-0.3961479664,0.7854842544,0.02584655769,0.01819978841,0.1439259201,0
104,6708,134.1600037,580484,260.3041284,260.229248,4.603448391,0.02556463704,-8.95412159,-2.152122498,14.36282349,-0.782135725,-0.908493638,0.8933982253,-0.929196775,-0.3961479664,0.7854842544,-0.01953200251,-0.009725479409,0.1561432332,0
104,6709,134.1799927,580484,260.2862604,260.229248,4.897573948,0.1889677346,-8.986802101,-3.188061476,14.36282349,-0.7721655369,-0.9571294188,0.8945304751,-0.929196775,-0.3961479664,0.7854842544,-0.06054724008,-0.01321613789,0.1718511879,0
104,6710,134.1999969,580484,260.2683698,260.229248,5.355102539,0.02556463704,-9.280927658,-2.891816139,10.73396969,-0.7583056092,-1.011155009,0.893825829,-0.929196775,-0.3961479664,0.7854842544,-0.1041804701,-0.01757946052,0.1709785312,0
104,6711,134.2200012,580484,260.2504933,260.229248,5.779950619,0.02556463704,-9.509692192,-1.342088342,-0.1449776143,-0.7468271255,-1.072977662,0.8852362037,-0.929196775,-0.3961479664,0.7854842544,-0.1486863643,0.001619160757,0.1770871878,0
104,6712,134.2400055,580484,260.2327886,260.229248,5.87799263,0.05824525654,-10.19598484,-3.188061476,10.73396969,-0.7346585393,-1.142088175,0.8702989221,-0.929196775,-0.3961479664,0.7854842544,-0.1923196018,0.06881433725,0.1831958294,0
104,6713,134.2599945,580484,260.2153826,260.229248,5.81263113,0.1889677346,-10.35938835,-2.536295652,18.13817787,-0.7216627002,-1.20994556,0.8415646553,-0.929196775,-0.3961479664,0.7854842544,-0.2499154657,0.110702239,0.1962857991,0
104,6714,134.2799988,580484,260.1985513,260.229248,5.747270107,0.3196902275,-10.26134586,-1.682394862,14.36282349,-0.7065118551,-1.275299191,0.809908092,-0.929196775,-0.3961479664,0.7854842544,-0.3005300164,0.1080842465,0.2076304406,0
104,6715,134.3000031,580484,260.1823532,260.229248,5.779950619,0.3850514591,-10.09794331,-2.51080513,5.220543861,-0.6894908547,-1.339143276,0.7803438306,-0.929196775,-0.3961479664,0.7854842544,-0.3581258655,0.09324894845,0.2198477536,0
104,6716,134.3200073,580484,260.1667463,260.229248,5.649228096,0.05824525654,-9.673094749,-3.188061476,7.106386185,-0.6718961596,-1.403803468,0.7536455989,-0.929196775,-0.3961479664,0.7854842544,-0.3904144764,0.07143232971,0.2477730215,0
104,6717,134.3399963,580484,260.1516734,260.229248,5.224380016,-0.1051578447,-9.378969193,-3.846448183,-4.928102493,-0.6619468331,-1.468144178,0.7355528474,-0.929196775,-0.3961479664,0.7854842544,-0.4558643103,0.01732712425,0.2538816631,0
104,6718,134.3600006,580484,260.1369623,260.229248,5.093657494,-0.3992834091,-9.019482613,-1.342088342,7.976890564,-0.6569637656,-1.525743484,0.7250344157,-0.929196775,-0.3961479664,0.7854842544,-0.4419016838,-0.007107485551,0.2538816631,0
104,6719,134.3800049,580484,260.1224616,260.229248,4.832212448,-0.9875345826,-8.594634056,-2.352066278,8.992571831,-0.6590895057,-1.583183527,0.7221198678,-0.929196775,-0.3961479664,0.7854842544,-0.4349203706,-0.0009988331003,0.2538816631,0
104,6720,134.3999939,580484,260.1080192,260.229248,4.472725868,-1.412382603,-8.529273033,-1.342088342,8.992571831,-0.6742337346,-1.639084816,0.7288662791,-0.929196775,-0.3961479664,0.7854842544,-0.3459085822,-0.007980150171,0.2660989761,0
104,6721,134.4199982,580484,260.0934419,260.229248,4.211280823,-1.771869421,-9.117524147,-3.326303959,10.73396969,-0.6995537281,-1.689634204,0.7388585806,-0.929196775,-0.3961479664,0.7854842544,-0.2734774053,-0.04375939816,0.2748256326,0
104,6722,134.4400024,580484,260.0786647,260.229248,3.884474754,-1.31434083,-9.771137238,-1.64371419,8.992571831,-0.7338930368,-1.733670712,0.7389675975,-0.929196775,-0.3961479664,0.7854842544,-0.2254808545,-0.03416008875,0.2783162892,0
104,6723,134.4600067,580484,260.0638854,260.229248,3.851794004,-0.5300059319,-10.32670784,-2.70802021,12.62081528,-0.7611910105,-1.767670751,0.727845788,-0.929196775,-0.3961479664,0.7854842544,-0.1801022887,-0.03328742459,0.2756982744,0
104,6724,134.4799957,580484,260.0493285,260.229248,3.786432743,-0.1705190837,-11.01300049,-1.64371419,8.992571831,-0.7741219401,-1.796685934,0.7057358623,-0.929196775,-0.3961479664,0.7854842544,-0.2708594203,-0.04375939816,0.2451550215,0
104,6725,134.5,580484,260.0352137,260.229248,3.68839097,0.02556463704,-10.81691647,-3.961781025,10.73396969,-0.7812849283,-1.820549846,0.6704124212,-0.929196775,-0.3961479664,0.7854842544,-0.2752227485,-0.07081200182,0.2320650518,0
104,6726,134.5200043,580484,260.0218055,260.229248,3.982516527,-0.3992834091,-10.68619442,-3.043545485,8.992571831,-0.7853572965,-1.843146205,0.6392785907,-0.929196775,-0.3961479664,0.7854842544,-0.3267099559,-0.05074071512,0.2093757689,0
104,6727,134.5399933,580484,260.0090199,260.229248,4.407364368,-1.445063233,-9.803817749,-2.891816139,7.106386185,-0.7975474596,-1.873777509,0.6097291112,-0.929196775,-0.3961479664,0.7854842544,-0.3110019863,0.01558179501,0.221593082,0
104,6728,134.5599976,580484,259.9968253,260.229248,4.407364368,-1.020215154,-9.934539795,-3.064608097,12.62081528,-0.8286506534,-1.920325041,0.5964450836,-0.929196775,-0.3961479664,0.7854842544,-0.2507881224,0.1220468804,0.2277017236,0
104,6729,134.5800018,580485,259.2980779,260.1075134,4.453146935,-0.2968635857,-10.94072247,-3.022336483,12.62081528,-2.140732765,-2.213567734,1.735215425,-2.250787973,-2.256980419,1.969994783,-0.2361802459,0.1791404784,0.2325119376,0
104,6730,134.6000061,580485,259.2633736,260.1075134,4.093659878,0.5201519132,-11.56165409,-3.586838961,7.106386185,-2.171205044,-2.245452166,1.69932735,-2.250787973,-2.256980419,1.969994783,-0.19341968,0.1869944632,0.2621825337,0
104,6731,134.6199951,580485,259.229387,260.1075134,4.126340866,0.8796387315,-11.07144547,-2.70802021,7.106386185,-2.184175014,-2.27175045,1.651844382,-2.250787973,-2.256980419,1.969994783,-0.1855656952,0.2219010442,0.28138116,0
104,6732,134.6399994,580485,259.1963501,260.1075134,3.962937593,0.8142774701,-9.862261772,-2.51080513,10.73396969,-2.190701723,-2.301963568,1.613187075,-2.250787973,-2.256980419,1.969994783,-0.175966382,0.2105564177,0.2997071147,0
104,6733,134.6600037,580485,259.1640864,260.1075134,3.864895582,0.7162356377,-8.456995964,-3.043545485,12.62081528,-2.197630405,-2.333309174,1.598701119,-2.250787973,-2.256980419,1.969994783,-0.1777117103,0.1721591651,0.3136697412,0
104,6734,134.6799927,580485,259.1321124,260.1075134,3.015199661,0.1933456957,-7.934105396,-3.710251331,16.25032806,-2.205858231,-2.368086576,1.611920238,-2.250787973,-2.256980419,1.969994783,-0.1742210537,0.1468518972,0.3354863524,0
104,6735,134.6999969,580485,259.099874,260.1075134,2.165503502,0.0626232177,-8.358953476,-1.89799571,10.73396969,-2.21924901,-2.386056423,1.639887094,-2.250787973,-2.256980419,1.969994783,-0.1419324726,0.1128179729,0.3660296202,0
104,6736,134.7200012,580485,259.0670762,260.1075134,1.806016564,-0.1334605068,-7.574618816,-2.122021675,10.73396969,-2.230512857,-2.384837389,1.663836598,-2.250787973,-2.256980419,1.969994783,-0.09219058603,0.06743941456,0.3878462315,0
104,6737,134.7400055,580485,259.0337995,260.1075134,2.198184013,-0.7543922663,-6.692242146,-3.022336483,8.992571831,-2.24358964,-2.379450321,1.704998136,-2.250787973,-2.256980419,1.969994783,0.007293184288,-0.03640767932,0.4079175293,0
104,6738,134.7599945,580485,258.9996995,260.1075134,2.753754616,-1.015837193,-6.757603168,-2.846979856,10.73396969,-2.270529509,-2.382599354,1.762212634,-2.250787973,-2.256980419,1.969994783,0.08059701324,-0.02419037372,0.4218801558,0
104,6739,134.7799988,580485,258.9644553,260.1075134,3.047880173,-0.4929473102,-7.247812748,-1.89799571,8.992571831,-2.305035591,-2.394856691,1.815764904,-2.250787973,-2.256980419,1.969994783,0.1408108771,0.001989565324,0.4428240955,0
104,6740,134.8000031,580485,258.92814,260.1075134,3.538089514,0.02994260006,-7.411215782,-2.122021675,12.62081528,-2.330291033,-2.412991047,1.85758245,-2.250787973,-2.256980419,1.969994783,0.1713541299,0.017697528,0.4471874237,0
104,6741,134.8200073,580485,258.8909883,260.1075134,3.505408764,-0.1007798836,-6.953687191,-2.846979856,8.992571831,-2.346805096,-2.442186594,1.893073916,-2.250787973,-2.256980419,1.969994783,0.2062607259,0.01682486385,0.4716220498,0
104,6742,134.8399963,580485,258.8531268,260.1075134,3.668812037,-0.6236698031,-6.659561157,-3.188061476,10.73396969,-2.364599705,-2.472696066,1.937652707,-2.250787973,-2.256980419,1.969994783,0.1940434128,0.05784010142,0.4777306914,0
104,6743,134.8600006,580485,258.8143738,260.1075134,3.505408764,-0.2641829848,-8.09750843,-3.586838961,3.335044384,-2.392130852,-2.505786657,1.98755455,-2.250787973,-2.256980419,1.969994783,0.2176053524,0.0220608525,0.4873300195,0
104,6744,134.8800049,580485,258.7746227,260.1075134,3.864895582,0.3567487895,-9.372053146,-2.684160948,8.992571831,-2.410496712,-2.530189037,2.009943247,-2.250787973,-2.256980419,1.969994783,0.2176053524,-0.07131426036,0.4951839745,0
104,6745,134.8999939,580485,258.7344238,260.1075134,4.060979366,1.173764348,-9.731539726,-3.022336483,12.62081528,-2.416425943,-2.557668209,2.005300999,-2.250787973,-2.256980419,1.969994783,0.1853167713,-0.1385094374,0.5178732872,0
104,6746,134.9199982,580485,258.6943178,260.1075134,3.864895582,1.043041825,-8.881843567,-3.586838961,8.992571831,-2.405421734,-2.590670824,1.992252111,-2.250787973,-2.256980419,1.969994783,0.1128856018,-0.1812700033,0.5265999436,0
104,6747,134.9400024,580485,258.6544728,260.1075134,3.930256844,0.7489162683,-8.391633987,-3.829688549,10.73396969,-2.395155907,-2.624299288,1.996884704,-2.250787973,-2.256980419,1.969994783,0.08845099807,-0.2057046145,0.5274725556,0
104,6748,134.9600067,580485,258.6145351,260.1075134,4.453146935,0.2260263264,-8.130188942,-2.660087585,7.106386185,-2.390006781,-2.661253452,2.011014223,-2.250787973,-2.256980419,1.969994783,0.05878039822,-0.2048319578,0.5396898985,0
104,6749,134.9799957,580485,258.5743148,260.1075134,5.13944006,0.6181937456,-8.816482544,-3.188061476,7.106386185,-2.39594388,-2.708581448,2.028080702,-2.250787973,-2.256980419,1.969994783,0.03260045871,-0.1463634223,0.5693604946,0
104,6750,135,580485,258.5337532,260.1075134,4.877995014,-0.2315023541,-9.96030426,-3.043545485,5.220543861,-2.394802094,-2.767913818,2.028685331,-2.250787973,-2.256980419,1.969994783,0.02998246439,-0.09749419987,0.5999037623,0
104,6751,135.0200043,580485,258.4931795,260.1075134,3.766853809,-0.394905448,-10.05834579,-4.363548756,7.106386185,-2.408019304,-2.815185547,2.008601904,-2.250787973,-2.256980419,1.969994783,-0.01103277318,-0.04164366424,0.5946677327,0
104,6752,135.0399933,580485,258.4530074,260.1075134,3.178602695,-0.5583085418,-9.568136215,-2.846979856,10.73396969,-2.42043519,-2.840788603,1.991817236,-2.250787973,-2.256980419,1.969994783,-0.07822795212,0.03602348641,0.5754691362,0
104,6753,135.0599976,580485,258.4131711,260.1075134,2.9498384,-0.4929473102,-9.143288612,-3.14744854,10.73396969,-2.43418479,-2.857250452,1.987284541,-2.250787973,-2.256980419,1.969994783,-0.1654944122,0.07442072779,0.5606338382,0
104,6754,135.0800018,580485,258.3734254,260.1075134,3.113241434,-0.1007798836,-9.339372635,-3.188061476,8.121981621,-2.445926189,-2.871400118,1.992045283,-2.250787973,-2.256980419,1.969994783,-0.2937761247,0.1154359654,0.5283452272,0
104,6755,135.1000061,580485,258.3335845,260.1075134,2.91715765,-0.8197535276,-10.94072247,-4.04214716,12.62081528,-2.450006485,-2.888372183,1.992198229,-2.250787973,-2.256980419,1.969994783,-0.3313006759,0.1381252408,0.510891974,0
104,6756,135.1199951,580485,258.2937405,260.1075134,2.786435127,-1.832852721,-11.43093204,-2.801425934,16.25032806,-2.468074322,-2.892427444,1.962182879,-2.250787973,-2.256980419,1.969994783,-0.4124585092,0.125035271,0.5021653175,0
104,6757,135.1399994,580485,258.2544969,260.1075134,2.91715765,-1.506046534,-10.74463844,-2.268535137,9.86323452,-2.506920099,-2.88971734,1.923516989,-2.250787973,-2.256980419,1.969994783,-0.3653346002,0.08314737678,0.521363914,0
104,6758,135.1600037,580485,258.2160265,260.1075134,3.570770025,-1.734810829,-10.31979084,-3.55079031,15.37912941,-2.540694952,-2.892968178,1.897673607,-2.250787973,-2.256980419,1.969994783,-0.3409000039,0.04038680717,0.525727272,0
104,6759,135.1799927,580485,258.1780731,260.1075134,3.962937593,-1.081198454,-11.00608349,-4.182916164,12.62081528,-2.580573082,-2.910671711,1.877159834,-2.250787973,-2.256980419,1.969994783,-0.2649781704,0.01682486385,0.5327085853,0
104,6760,135.1999969,580485,258.1405299,260.1075134,3.799534559,-0.9504759908,-12.57475376,-3.55079031,23.80378914,-2.608563662,-2.93329978,1.841259718,-2.250787973,-2.256980419,1.969994783,-0.1497864425,-0.03640767932,0.5711058378,0
104,6761,135.2200012,580485,258.1037047,260.1075134,3.440047503,-0.7543922663,-13.29372692,-2.824294806,12.62081528,-2.634810686,-2.945345879,1.775715947,-2.250787973,-2.256980419,1.969994783,-0.04506669194,-0.08527689427,0.6042670608,0
104,6762,135.2400055,580485,258.0681904,260.1075134,3.440047503,-0.4275860786,-11.92114162,-3.421630621,9.86323452,-2.657243252,-2.947386503,1.697873473,-2.250787973,-2.256980419,1.969994783,0.02561914176,-0.07131426036,0.6330649853,0
104,6763,135.2599945,580485,258.0342329,260.1075134,3.145921946,-0.4602667093,-9.927623749,-3.912769079,7.106386185,-2.671889305,-2.956688881,1.646461964,-2.250787973,-2.256980419,1.969994783,0.07623369247,0.02293351665,0.668844223,0
104,6764,135.2799988,580485,258.0013036,260.1075134,2.819115877,-0.787072897,-8.456995964,-1.64371419,5.220543861,-2.685295105,-2.97029686,1.635132551,-2.250787973,-2.256980419,1.969994783,0.08932366222,0.07442072779,0.6915335059,0
104,6765,135.3000031,580485,257.968601,260.1075134,2.426948309,-1.375324011,-7.999466896,-3.28739953,15.37912941,-2.703577757,-2.984794855,1.653956652,-2.250787973,-2.256980419,1.969994783,0.128593564,0.1084546521,0.7177134752,0
104,6766,135.3200073,580485,257.9355219,260.1075134,1.871377826,-1.669449687,-6.692242146,-3.14744854,19.15485382,-2.7326262,-2.994263411,1.683575988,-2.250787973,-2.256980419,1.969994783,0.1434288621,0.1040913239,0.7342941165,0
104,6767,135.3399963,580485,257.9018503,260.1075134,2.263545275,-1.375324011,-5.613781452,-3.55079031,8.992571831,-2.766522884,-2.999608755,1.741102457,-2.250787973,-2.256980419,1.969994783,0.1591368318,0.1049639881,0.7264401317,0
104,6768,135.3600006,580485,257.8670283,260.1075134,2.459629059,-1.146559715,-5.385017395,-2.268535137,25.54767609,-2.79277873,-3.017566919,1.817382455,-2.250787973,-2.256980419,1.969994783,0.1399382055,0.107581988,0.7081141472,0
104,6769,135.3800049,580485,257.8306806,260.1075134,2.198184013,-0.5583085418,-6.3654356,-2.801425934,9.86323452,-2.813088655,-3.040125608,1.896941662,-2.250787973,-2.256980419,1.969994783,0.07536102831,0.04824079201,0.6697168946,0
104,6770,135.3999939,580485,257.7927418,260.1075134,2.786435127,-0.2315023541,-7.541938305,-3.14744854,10.73396969,-2.82135582,-3.051609755,1.958816409,-2.250787973,-2.256980419,1.969994783,-0.04244869947,0.0159521997,0.6173570156,0
104,6771,135.4199982,580485,257.7535655,260.1075134,3.440047503,-0.3622248471,-8.162869453,-3.795947075,12.62081528,-2.821291447,-3.067740917,1.995036364,-2.250787973,-2.256980419,1.969994783,-0.1096438766,-0.002373757772,0.5754691362,0
104,6772,135.4400024,580485,257.7136648,260.1075134,3.505408764,-0.9504759908,-8.685759544,-2.459031105,3.335044384,-2.821833611,-3.093549967,2.015895128,-2.250787973,-2.256980419,1.969994783,-0.1750937253,0.005480223801,0.5475438833,0
104,6773,135.4600067,580485,257.6733469,260.1075134,3.178602695,-0.4929473102,-9.110608101,-3.000977278,20.026371,-2.833546877,-3.119529009,2.02605319,-2.250787973,-2.256980419,1.969994783,-0.2012736648,-0.01633639261,0.5222365856,0
104,6774,135.4799957,580485,257.6328258,260.1075134,3.34200573,0.3567487895,-8.94720459,-3.692873716,13.49178219,-2.837059736,-3.13601017,2.029834032,-2.250787973,-2.256980419,1.969994783,-0.2091276497,-0.0276810322,0.4882026613,0
104,6775,135.5,580485,257.5922291,260.1075134,3.962937593,0.3567487895,-8.914524078,-3.000977278,8.121981621,-2.823266506,-3.154056549,2.036315203,-2.250787973,-2.256980419,1.969994783,-0.1890563518,-0.06433294713,0.4794760346,0
104,6776,135.5200043,580485,257.5515028,260.1075134,4.64923048,0.1933456957,-8.94720459,-3.14744854,14.36282349,-2.807556152,-3.184170485,2.040328026,-2.250787973,-2.256980419,1.969994783,-0.1445504576,-0.07305959612,0.4698767066,0
104,6777,135.5399933,580485,257.5106962,260.1075134,5.466246128,0.3567487895,-8.620398521,-3.188061476,14.36282349,-2.792637348,-3.227930069,2.040280104,-2.250787973,-2.256980419,1.969994783,-0.08346393704,-0.01982705109,0.4681313932,0
104,6778,135.5599976,580485,257.4698906,260.1075134,5.989136219,-0.03541864082,-8.685759544,-3.912769079,5.220543861,-2.770994902,-3.288448572,2.042662144,-2.250787973,-2.256980419,1.969994783,-0.01539609581,0.04038680717,0.46638605,0
104,6779,135.5800018,580486,254.4030329,254.8090057,5.989463329,-0.9573031664,-9.306693077,-3.188061476,14.36282349,-5.996623039,-2.38753581,6.529146671,-6.41585207,-2.252416372,7.434875488,0.05622957274,0.08884382993,0.4432547688,0
104,6780,135.6000061,580486,254.27245,254.8090057,5.597295761,-0.5978163481,-9.764222145,-3.55079031,8.992571831,-6.050501823,-2.444865704,6.517647266,-6.41585207,-2.252416372,7.434875488,0.08939082921,0.1499303579,0.4092208445,0
104,6781,135.6199951,580486,254.142097,254.8090057,5.237809181,-0.9573031664,-9.894944191,-3.459025621,8.992571831,-6.092075825,-2.497888088,6.498820305,-6.41585207,-2.252416372,7.434875488,0.1094621196,0.1822189391,0.3760595918,0
104,6782,135.6399994,580486,254.0121206,254.8090057,6.545033932,-0.891941905,-10.41783428,-4.891737461,1.449887514,-6.134805679,-2.540921688,6.478705406,-6.41585207,-2.252416372,7.434875488,0.1033534631,0.1987995654,0.3324263692,0
104,6783,135.6600037,580486,253.8825465,254.8090057,8.734635353,-0.9573031664,-11.88846207,-3.829688549,18.13817787,-6.185956955,-2.604987383,6.442295074,-6.41585207,-2.252416372,7.434875488,0.09637214988,0.2459234595,0.3010104299,0
104,6784,135.6799927,580486,253.7537006,254.8090057,10.72815323,-2.525972843,-12.14990711,-4.995823383,16.25032806,-6.253208637,-2.700270653,6.366882801,-6.41585207,-2.252416372,7.434875488,0.1251700819,0.307009995,0.2399239093,0
104,6785,135.6999969,580486,253.6263629,254.8090057,12.52558708,-1.349470615,-14.07806396,-5.172935009,3.335044384,-6.363650322,-2.813552141,6.275747299,-6.41585207,-2.252416372,7.434875488,0.0876455009,0.3611151874,0.1544027776,0
104,6786,135.7200012,580486,253.500848,254.8090057,15.27075958,-0.891941905,-17.86901665,-5.738817692,9.86323452,-6.462099075,-2.960612297,6.138197422,-6.41585207,-2.252416372,7.434875488,0.01870499551,0.2467961311,0.06102765724,0
104,6787,135.7400055,580486,253.378084,254.8090057,20.95718765,1.853230119,-22.80378914,6.515608311,20.026371,-6.564083099,-3.142318726,5.912696362,-6.41585207,-2.252416372,7.434875488,-0.07205212861,0.217125535,-0.01751215756,0
104,6788,135.7599945,580486,253.2598301,254.8090057,25.27102852,2.049313784,-24.60122299,6.495835781,8.121981621,-6.652625561,-3.425412416,5.563927174,-6.41585207,-2.252416372,7.434875488,-0.05983482301,0.3262086213,-0.08819799125,0
104,6789,135.7799988,580486,253.1485516,254.8090057,26.70897675,0.8728115559,-22.21553802,7.128408909,5.220543861,-6.770505905,-3.774338007,5.157237053,-6.41585207,-2.252416372,7.434875488,0.1007354707,0.4893968999,-0.133576557,0
104,6790,135.8000031,580486,253.0454068,254.8090057,26.15340614,1.885910749,-16.75787544,7.454760551,9.86323452,-6.928389072,-4.143149376,4.785964489,-6.41585207,-2.252416372,7.434875488,0.2150545418,0.6185512543,-0.1615018249,0
104,6791,135.8200073,580486,252.9496875,254.8090057,24.42133331,3.487261057,-7.051730633,6.936352253,8.992571831,-7.077846527,-4.531531811,4.519454479,-6.41585207,-2.252416372,7.434875488,0.3756248355,0.7765035629,-0.1405578703,0
104,6792,135.8399963,580486,252.8592985,254.8090057,16.51262283,-2.85277915,1.804717541,6.375912666,12.62081528,-7.212437153,-4.946100235,4.44493103,-6.41585207,-2.252416372,7.434875488,0.5981543064,0.9562724829,-0.06638137996,0
104,6793,135.8600006,580486,252.7703998,254.8090057,6.250908375,-5.695992947,-1.953553796,7.128408909,5.220543861,-7.416634083,-5.206064224,4.575279713,-6.41585207,-2.252416372,7.434875488,0.6147349477,1.032194257,-0.01227616984,0
104,6794,135.8800049,580486,252.6788942,254.8090057,5.56461525,-0.5324550867,-6.692243576,7.128408909,10.73396969,-7.564289093,-5.245872498,4.689418316,-6.41585207,-2.252416372,7.434875488,0.6766940951,0.9536544681,-0.001804193947,0
104,6795,135.8999939,580486,252.5851059,254.8090057,6.610394955,0.7420890927,-7.803384781,7.010137558,9.86323452,-7.594024658,-5.297903538,4.721922874,-6.41585207,-2.252416372,7.434875488,0.7142186761,0.7957021594,-0.01140350476,0
104,6796,135.9199982,580486,252.4906674,254.8090057,6.152866364,1.003534079,-7.836065292,7.000956535,8.992571831,-7.602357864,-5.37180233,4.72708559,-6.41585207,-2.252416372,7.434875488,0.6138622761,0.6770197749,-0.02362081036,0
104,6797,135.9400024,580486,252.3961257,254.8090057,5.695337772,-0.3690519929,-7.247814178,7.446128368,8.992571831,-7.598590851,-5.439086437,4.734775543,-6.41585207,-2.252416372,7.434875488,0.5815736651,0.6237872243,-0.02449347451,0
104,6798,135.9600067,580486,252.3014302,254.8090057,6.545033932,0.8401309252,-8.391635895,6.991764069,12.62081528,-7.614816189,-5.487343788,4.753715515,-6.41585207,-2.252416372,7.434875488,0.4742359221,0.5400114655,-0.04543742537,0
104,6799,135.9799957,580486,252.2063559,254.8090057,6.152866364,-0.04224579409,-8.522357941,6.871140003,5.220543861,-7.608427525,-5.553872108,4.747218609,-6.41585207,-2.252416372,7.434875488,0.4052954316,0.4562356472,-0.06812670827,0
104,6800,136,580486,252.1114115,254.8090057,5.956782818,-0.1076070368,-8.260913849,7.633780479,8.992571831,-7.610620022,-5.603261948,4.73916626,-6.41585207,-2.252416372,7.434875488,0.3485722244,0.3794411421,-0.07598068565,0
104,6801,136.0200043,580486,252.0166282,254.8090057,6.316269398,0.3499216437,-9.633499146,7.200225353,7.106386185,-7.611842632,-5.649392128,4.737038612,-6.41585207,-2.252416372,7.434875488,0.2717777491,0.3244632781,-0.1039059535,0
104,6802,136.0399933,580486,251.9218874,254.8090057,5.793379307,-0.4670938551,-8.587719917,7.000956535,10.73396969,-7.597957611,-5.696989059,4.708217621,-6.41585207,-2.252416372,7.434875488,0.2394891381,0.2712307274,-0.1300859004,0
104,6803,136.0599976,580486,251.8277231,254.8090057,6.283588886,0.709408462,-9.5027771,6.652369499,18.13817787,-7.598856926,-5.733260632,4.700302124,-6.41585207,-2.252416372,7.434875488,0.1522226781,0.2310881615,-0.15364784,0
104,6804,136.0800018,580486,251.733717,254.8090057,5.56461525,-0.1729682684,-9.045248032,7.137425423,10.73396969,-7.576910019,-5.783325672,4.674934387,-6.41585207,-2.252416372,7.434875488,0.1225520819,0.1970542371,-0.173719123,0
104,6805,136.1000061,580486,251.6402183,254.8090057,5.793379307,0.6113666296,-9.437416077,7.128408909,15.37912941,-7.566105843,-5.814792156,4.661410809,-6.41585207,-2.252416372,7.434875488,0.06146556139,0.1778556257,-0.1798277795,0
104,6806,136.1199951,580486,251.5469901,254.8090057,5.597295761,-0.1729682684,-8.587719917,6.936352253,10.73396969,-7.540911674,-5.855042934,4.641020775,-6.41585207,-2.252416372,7.434875488,0.0239409823,0.1717469692,-0.2007717341,0
104,6807,136.1399994,580486,251.4541697,254.8090057,5.728018284,0.6767278314,-9.110610008,7.32420969,18.13817787,-7.532747269,-5.888440132,4.635158539,-6.41585207,-2.252416372,7.434875488,-0.05110817403,0.1656383127,-0.2103710324,0
104,6808,136.1600037,580486,251.3614665,254.8090057,5.728018284,0.3172410131,-8.751122475,7.32420969,5.220543861,-7.507825851,-5.928889751,4.621078968,-6.41585207,-2.252416372,7.434875488,-0.0458721891,0.1630203277,-0.2182250172,0
104,6809,136.1799927,580486,251.269045,254.8090057,5.826060295,0.1211573035,-8.620400429,7.064970493,12.62081528,-7.491565704,-5.966845989,4.612195015,-6.41585207,-2.252416372,7.434875488,-0.09648673236,0.1586569995,-0.2382963151,0
104,6810,136.1999969,580486,251.176801,254.8090057,6.120185852,0.2845604122,-9.274012566,7.32420969,10.73396969,-7.480507374,-6.004151821,4.604040146,-6.41585207,-2.252416372,7.434875488,-0.1078313738,0.1359677166,-0.2496409416,0
104,6811,136.2200012,580486,251.0847202,254.8090057,5.858740807,-0.1076070368,-9.110610008,7.566082001,12.62081528,-7.465163708,-6.042571545,4.581902027,-6.41585207,-2.252416372,7.434875488,-0.1558279246,0.08709850162,-0.2444049567,0
104,6812,136.2400055,580486,250.9930822,254.8090057,5.92410183,-0.4344132245,-9.077928543,7.074068069,14.36282349,-7.455663681,-6.072708607,4.56385231,-6.41585207,-2.252416372,7.434875488,-0.149719283,0.0932071507,-0.2286970019,0
104,6813,136.2599945,580486,250.9018052,254.8090057,6.283588886,-0.1402876526,-8.979887009,7.209152222,12.62081528,-7.453113079,-6.099545479,4.54484129,-6.41585207,-2.252416372,7.434875488,-0.1924798489,0.1028064638,-0.2156070322,0
104,6814,136.2799988,580486,250.8109083,254.8090057,5.760698795,-0.3363713622,-8.914525986,7.633780479,18.13817787,-7.450238228,-6.134829044,4.524780273,-6.41585207,-2.252416372,7.434875488,-0.2238957733,0.1263684034,-0.2129890323,0
104,6815,136.3000031,580486,250.7204127,254.8090057,5.695337772,-0.4997744858,-9.01256752,7.128408909,7.106386185,-7.447115421,-6.159347057,4.510118961,-6.41585207,-2.252416372,7.434875488,-0.2361130714,0.08884382993,-0.2068803757,0
104,6816,136.3200073,580486,250.6302103,254.8090057,5.335850716,-0.7612194419,-9.045248032,7.128408909,10.73396969,-7.446203232,-6.179228783,4.493868828,-6.41585207,-2.252416372,7.434875488,-0.3094168901,0.094952479,-0.2129890323,0
104,6817,136.3399963,580486,250.540333,254.8090057,5.629976273,-0.1729682684,-8.751122475,7.874306679,18.13817787,-7.446998596,-6.189475536,4.479812622,-6.41585207,-2.252416372,7.434875488,-0.332106173,0.08448050171,-0.2252063453,0
104,6818,136.3600006,580486,250.4507367,254.8090057,5.662657261,-0.1076070368,-9.14329052,7.574577332,7.106386185,-7.44378233,-6.211534977,4.469147205,-6.41585207,-2.252416372,7.434875488,-0.3827207386,0.1281137317,-0.2190976888,0
104,6819,136.3800049,580486,250.3613538,254.8090057,5.891421318,-0.4344132245,-8.947206497,7.385420799,8.992571831,-7.43842411,-6.230821133,4.451253891,-6.41585207,-2.252416372,7.434875488,-0.379230082,0.1569116712,-0.2147343606,0
104,6820,136.3999939,580486,250.2723287,254.8090057,5.793379307,-0.4344132245,-8.979887009,7.000956535,10.73396969,-7.443099022,-6.24977541,4.43399477,-6.41585207,-2.252416372,7.434875488,-0.4027920067,0.1464396864,-0.2051350474,0
104,6821,136.4199982,580486,250.1836488,254.8090057,5.92410183,-0.00956517458,-9.01256752,7.506344795,16.25032806,-7.447820663,-6.265433311,4.416994095,-6.41585207,-2.252416372,7.434875488,-0.4019193649,0.08797116578,-0.191172421,0
104,6822,136.4400024,580486,250.0953089,254.8090057,6.087505341,-0.1729682684,-8.947206497,7.271332741,8.992571831,-7.447776794,-6.285942554,4.398546696,-6.41585207,-2.252416372,7.434875488,-0.4123913348,0.08448050171,-0.1876817644,0
104,6823,136.4600067,580486,250.007338,254.8090057,6.022143841,-0.6304969788,-9.045248032,7.209152222,10.73396969,-7.453738689,-6.306157589,4.379392147,-6.41585207,-2.252416372,7.434875488,-0.4141366482,0.09931580722,-0.1885544211,0
104,6824,136.4799957,580486,249.9197501,254.8090057,5.760698795,-0.4344132245,-9.568138123,7.514907837,10.73396969,-7.46748209,-6.318170547,4.35874176,-6.41585207,-2.252416372,7.434875488,-0.3801027536,0.1158964336,-0.1763371229,0
104,6825,136.5,580486,249.8325753,254.8090057,5.597295761,-0.5324550867,-9.535457611,7.692527294,7.106386185,-7.47382021,-6.323018551,4.331625462,-6.41585207,-2.252416372,7.434875488,-0.3905747235,0.07662652433,-0.1902997494,0
104,6826,136.5200043,580486,249.7459428,254.8090057,5.629976273,-0.7612194419,-8.979887009,7.514907837,16.25032806,-7.481668472,-6.323184967,4.306651115,-6.41585207,-2.252416372,7.434875488,-0.3259975314,0.05044658482,-0.1719737947,0
104,6827,136.5399933,580486,249.6598098,254.8090057,5.531934738,-0.4997744858,-8.685761452,7.394123554,18.13817787,-7.49815321,-6.324397087,4.291052341,-6.41585207,-2.252416372,7.434875488,-0.3469414711,0.02077598684,-0.1597564965,0
104,6828,136.5599976,580486,249.5739887,254.8090057,5.629976273,-0.1076070368,-8.228232384,7.759121895,18.13817787,-7.512143135,-6.328445911,4.281648636,-6.41585207,-2.252416372,7.434875488,-0.2806189656,0.01903065853,-0.1632471532,0
104,6829,136.5800018,580487,249.8027451,250.9438934,5.793899059,0.03764477745,-8.444554329,7.825149536,10.73396969,-1.654806852,-4.21074295,3.998571634,-1.377737045,-3.787695885,4.072868347,-0.2484698594,0.01758793741,-0.1603417546,0
104,6830,136.6000061,580487,249.7227737,250.9438934,5.72853756,-0.02771646157,-8.11774826,7.506344795,8.992571831,-1.661718369,-4.204701424,3.990234375,-1.377737045,-3.787695885,4.072868347,-0.1734206975,0.007115962449,-0.1664503962,0
104,6831,136.6199951,580487,249.642969,250.9438934,5.401731491,-0.3872032762,-8.11774826,8.107696533,18.13817787,-1.669787765,-4.202109814,3.987984657,-1.377737045,-3.787695885,4.072868347,-0.1577127278,0.03765922412,-0.1577237546,0
104,6832,136.6399994,580487,249.5632093,250.9438934,5.36905098,-0.6813288331,-8.215790749,7.394123554,18.13817787,-1.68721664,-4.197520256,3.989930391,-1.377737045,-3.787695885,4.072868347,-0.09662620723,0.02282392606,-0.1324164867,0
104,6833,136.6600037,580487,249.4834107,250.9438934,5.499773502,-0.4198839068,-8.313832283,7.514907837,8.992571831,-1.711629748,-4.193666935,3.991004944,-1.377737045,-3.787695885,4.072868347,-0.1193154901,0.02980524302,-0.1315438151,0
104,6834,136.6799927,580487,249.4035906,250.9438934,5.891941071,0.135686636,-8.24847126,8.225816727,8.992571831,-1.731561542,-4.188946724,3.988795996,-1.377737045,-3.787695885,4.072868347,-0.08615423739,0.06645715982,-0.1446337849,0
104,6835,136.6999969,580487,249.3238147,250.9438934,6.120705128,0.1030060202,-8.673318863,7.514907837,14.36282349,-1.739431977,-4.186989307,3.982486486,-1.377737045,-3.787695885,4.072868347,-0.04950232059,0.08478311449,-0.1620870829,0
104,6836,136.7200012,580487,249.2441649,250.9438934,6.284108162,-0.1257583201,-8.738679886,7.692527294,12.62081528,-1.749549508,-4.184062481,3.96670723,-1.377737045,-3.787695885,4.072868347,-0.03553968668,0.04202254862,-0.1577237546,0
104,6837,136.7400055,580487,249.1648308,250.9438934,5.924621582,-0.2238001823,-8.934763908,8.495040894,12.62081528,-1.764082909,-4.184402943,3.948192358,-1.377737045,-3.787695885,4.072868347,-0.02768570371,0.01671527326,-0.1559784263,0
104,6838,136.7599945,580487,249.0858669,250.9438934,5.565134525,-0.3872032762,-9.294250488,8.495040894,10.73396969,-1.783823848,-4.177861214,3.931024551,-1.377737045,-3.787695885,4.072868347,-0.0407756716,0.002752639353,-0.1516150981,0
104,6839,136.7799988,580487,249.0072464,250.9438934,5.72853756,-0.6159676313,-9.196208954,7.874306679,12.62081528,-1.810725212,-4.163177013,3.912683487,-1.377737045,-3.787695885,4.072868347,-0.05473830551,0.02195126191,-0.1489971131,0
104,6840,136.8000031,580487,248.9289928,250.9438934,5.826579571,-0.4852451384,-9.457653999,7.506344795,9.86323452,-1.841051579,-4.153805733,3.894257069,-1.377737045,-3.787695885,4.072868347,-0.08528156579,0.03678655997,-0.1524877697,0
104,6841,136.8200073,580487,248.8511076,250.9438934,5.793899059,-0.1257583201,-9.294250488,8.555387497,12.62081528,-1.870348215,-4.142227173,3.87040019,-1.377737045,-3.787695885,4.072868347,-0.1306601316,0.03765922412,-0.1612144113,0
104,6842,136.8399963,580487,248.7736996,250.9438934,6.186066628,-0.06039708108,-9.228889465,8.163032532,16.25032806,-1.89292562,-4.129502296,3.849158525,-1.377737045,-3.787695885,4.072868347,-0.1882559955,0.06296649575,-0.1777950376,0
104,6843,136.8600006,580487,248.6967165,250.9438934,5.989982605,-0.1257583201,-10.04590511,7.882469654,8.992571831,-1.912924886,-4.123151779,3.824221373,-1.377737045,-3.787695885,4.072868347,-0.2283985615,0.07954712957,-0.1751770526,0
104,6844,136.8800049,580487,248.620232,250.9438934,5.761218548,-0.4198839068,-10.17662716,8.495040894,14.36282349,-1.940574169,-4.105465889,3.788878441,-1.377737045,-3.787695885,4.072868347,-0.2624324858,0.04551320523,-0.1699410677,0
104,6845,136.8999939,580487,248.5444545,250.9438934,5.793899059,-0.9100931883,-10.04590511,8.043990135,16.25032806,-1.976861954,-4.085022926,3.754858732,-1.377737045,-3.787695885,4.072868347,-0.2528331876,0.04813120142,-0.1690683961,0
104,6846,136.9199982,580487,248.4693573,250.9438934,5.957302094,-0.648648262,-9.751779556,8.051980972,12.62081528,-2.022863388,-4.07022047,3.723560572,-1.377737045,-3.787695885,4.072868347,-0.2109452784,0.02195126191,-0.1498697698,0
104,6847,136.9400024,580487,248.3948861,250.9438934,5.891941071,-0.3218420446,-9.751779556,8.441883087,7.106386185,-2.062976599,-4.05958128,3.69471693,-1.377737045,-3.787695885,4.072868347,-0.2196719199,0.03591389582,-0.1498697698,0
104,6848,136.9600067,580487,248.3209917,250.9438934,5.924621582,-0.2238001823,-9.915182114,8.155150414,14.36282349,-2.098412275,-4.045986652,3.666217327,-1.377737045,-3.787695885,4.072868347,-0.2083272785,0.02195126191,-0.1533604264,0
104,6849,136.9799957,580487,248.2476674,250.9438934,5.924621582,-0.3218420446,-10.11126614,8.280362129,21.91490746,-2.134001732,-4.030707836,3.63471508,-1.377737045,-3.787695885,4.072868347,-0.2266532332,0.005370633211,-0.1420157999,0
104,6850,137,580487,248.1749731,250.9438934,5.565134525,-0.1584389359,-10.11126614,8.555387497,8.992571831,-2.173707008,-4.014307022,3.600492477,-1.377737045,-3.787695885,4.072868347,-0.2458518595,0.02369659021,-0.1420157999,0
104,6851,137.0200043,580487,248.1029632,250.9438934,5.630496025,-0.4198839068,-9.98054409,8.770662308,21.91490746,-2.213073015,-3.991670609,3.570429087,-1.377737045,-3.787695885,4.072868347,-0.2406158745,0.03678655997,-0.1498697698,0
104,6852,137.0399933,580487,248.0315547,250.9438934,5.695857048,-0.4198839068,-9.98054409,8.388388634,10.73396969,-2.257488966,-3.97362113,3.54243803,-1.377737045,-3.787695885,4.072868347,-0.1908739954,0.04464054108,-0.1516150981,0
104,6853,137.0599976,580487,247.9607059,250.9438934,5.630496025,-0.3545226753,-9.751779556,8.043990135,8.992571831,-2.302889347,-3.956873655,3.513883829,-1.377737045,-3.787695885,4.072868347,-0.1716753691,0.02893257886,-0.1455064565,0
104,6854,137.0800018,580487,247.8904282,250.9438934,5.695857048,-0.2238001823,-9.947863579,8.719186783,14.36282349,-2.347014904,-3.941311598,3.489753008,-1.377737045,-3.787695885,4.072868347,-0.144622758,0.01496994402,-0.1533604264,0
104,6855,137.1000061,580487,247.8206332,250.9438934,5.630496025,-0.2891614139,-10.04590511,8.659981728,7.106386185,-2.390646696,-3.923968077,3.46158576,-1.377737045,-3.787695885,4.072868347,-0.1612033844,0.03155057132,-0.1367798001,0
104,6856,137.1199951,580487,247.7514014,250.9438934,5.695857048,-0.3545226753,-9.784460068,8.396051407,14.36282349,-2.437250376,-3.905276299,3.433007479,-1.377737045,-3.787695885,4.072868347,-0.1638213843,0.007115962449,-0.1219445094,0
104,6857,137.1399994,580487,247.6827413,250.9438934,5.663176537,0.00496415887,-9.424973488,8.973611832,3.335044384,-2.484070778,-3.891032457,3.408093929,-1.377737045,-3.787695885,4.072868347,-0.1402594447,-0.0007380190655,-0.1481244415,0
104,6858,137.1600037,580487,247.6145794,250.9438934,5.957302094,0.03764477745,-9.555695534,8.659981728,14.36282349,-2.522894621,-3.87791276,3.388315439,-1.377737045,-3.787695885,4.072868347,-0.1289148033,-0.003356012981,-0.1769223809,0
104,6859,137.1799927,580487,247.5468131,250.9438934,5.695857048,-0.2238001823,-9.98054409,8.495040894,18.13817787,-2.561641932,-3.868024111,3.362961054,-1.377737045,-3.787695885,4.072868347,-0.089644894,-0.06095187739,-0.1690683961,0
104,6860,137.1999969,580487,247.4795539,250.9438934,5.532454014,-0.1911195666,-9.817140579,8.719186783,14.36282349,-2.609836102,-3.851706028,3.335069895,-1.377737045,-3.787695885,4.072868347,-0.109716177,-0.1682896316,-0.1577237546,0
104,6861,137.2200012,580487,247.4128525,250.9438934,5.467092991,-0.09307770431,-9.130847931,8.659981728,14.36282349,-2.657550573,-3.834869623,3.311695337,-1.377737045,-3.787695885,4.072868347,-0.06433761865,-0.2154135108,-0.1751770526,0
104,6862,137.2400055,580487,247.3466186,250.9438934,5.532454014,-0.2238001823,-8.60795784,8.547867775,14.36282349,-2.699630499,-3.824541569,3.29957509,-1.377737045,-3.787695885,4.072868347,-0.04601166025,-0.1918515712,-0.2170649469,0
104,6863,137.2599945,580487,247.2806271,250.9438934,5.695857048,0.00496415887,-8.640638351,8.659981728,14.36282349,-2.740709543,-3.822655201,3.295328379,-1.377737045,-3.787695885,4.072868347,0.008966210298,-0.259919405,-0.2284095883,0
104,6864,137.2799988,580487,247.2147205,250.9438934,5.532454014,-0.09307770431,-8.575277328,8.652552605,14.36282349,-2.777517796,-3.822399139,3.287925959,-1.377737045,-3.787695885,4.072868347,0.01943818666,-0.3236239254,-0.2336455733,0
104,6865,137.3000031,580487,247.148962,250.9438934,5.336370468,-0.1257583201,-8.313832283,8.600369453,16.25032806,-2.8163867,-3.82206583,3.283831596,-1.377737045,-3.787695885,4.072868347,0.07267072797,-0.3532945216,-0.2397542298,0
104,6866,137.3200073,580487,247.0832854,250.9438934,5.30368948,-0.4525645077,-8.019706726,8.449498177,14.36282349,-2.854815722,-3.822886705,3.286288023,-1.377737045,-3.787695885,4.072868347,0.0805247128,-0.3829651177,-0.246735543,0
104,6867,137.3399963,580487,247.0175596,250.9438934,5.532454014,-0.06039708108,-7.137330055,8.547867775,10.73396969,-2.897321939,-3.829671621,3.294932604,-1.377737045,-3.787695885,4.072868347,0.09797800332,-0.3934370875,-0.2554621994,0
104,6868,137.3600006,580487,246.951661,250.9438934,5.565134525,0.03764477745,-7.202691078,8.607843399,12.62081528,-2.925836325,-3.847882748,3.313796282,-1.377737045,-3.787695885,4.072868347,0.125030607,-0.414381057,-0.2554621994,0
104,6869,137.3800049,580487,246.885385,250.9438934,5.434412003,-0.06039708108,-7.398774624,8.555387497,16.25032806,-2.952630043,-3.86678648,3.33100915,-1.377737045,-3.787695885,4.072868347,0.1363752484,-0.4065270722,-0.2685521543,0
104,6870,137.3999939,580487,246.8187648,250.9438934,4.976883411,-0.4198839068,-6.941246033,8.814545631,14.36282349,-2.982628822,-3.883742094,3.346945047,-1.377737045,-3.787695885,4.072868347,0.1381205767,-0.3855831325,-0.284260124,0
104,6871,137.4199982,580487,246.7518259,250.9438934,5.238328457,-0.5179257393,-7.006607533,8.923307419,14.36282349,-3.017681122,-3.901227951,3.376743317,-1.377737045,-3.787695885,4.072868347,0.1180492863,-0.3655118346,-0.284260124,0
104,6872,137.4400024,580487,246.6842911,250.9438934,5.565134525,-0.09307770431,-6.87588501,8.814545631,14.36282349,-3.05391717,-3.924255848,3.403090954,-1.377737045,-3.787695885,4.072868347,0.08663336188,-0.3253692687,-0.301713407,0
104,6873,137.4600067,580487,246.6162293,250.9438934,5.238328457,-0.2891614139,-7.268052578,9.023635864,11.74992085,-3.080220222,-3.952710629,3.42674017,-1.377737045,-3.787695885,4.072868347,0.09361468256,-0.3061706424,-0.3052040935,0
104,6874,137.4799957,580487,246.5476945,250.9438934,5.238328457,-0.1584389359,-7.333413601,8.600369453,12.62081528,-3.113634825,-3.974358082,3.448222637,-1.377737045,-3.787695885,4.072868347,0.1084499806,-0.2730093896,-0.3052040935,0
104,6875,137.5,580487,246.47873,250.9438934,5.172967434,-0.4198839068,-7.039288044,8.916097641,10.73396969,-3.145004988,-3.995785236,3.468280077,-1.377737045,-3.787695885,4.072868347,0.14510189,-0.2494474351,-0.2947320938,0
104,6876,137.5200043,580487,246.4093644,250.9438934,5.107605934,-0.4852451384,-6.81052351,9.073383331,12.62081528,-3.179772615,-4.021234989,3.495035648,-1.377737045,-3.787695885,4.072868347,0.1590645313,-0.2346121371,-0.2860054672,0
104,6877,137.5399933,580487,246.3394637,250.9438934,5.172967434,-0.1584389359,-6.87588501,8.711808205,16.25032806,-3.214569092,-4.04883194,3.526664019,-1.377737045,-3.787695885,4.072868347,0.1616825163,-0.1918515712,-0.2903687656,0
104,6878,137.5599976,580487,246.2689304,250.9438934,5.205647945,-0.3218420446,-7.268052578,8.814545631,14.36282349,-3.243305922,-4.075990677,3.555428028,-1.377737045,-3.787695885,4.072868347,0.1634278446,-0.1429823488,-0.2737881541,0
104,6879,137.5800018,580488,250.8552089,258.7935791,5.136316299,-0.569622159,-7.390025616,8.872717857,14.36282349,2.951124668,-5.090089321,-1.91546607,3.829874992,-5.227471828,-2.949465036,0.1365201771,-0.1066780016,-0.2639659345,0
104,6880,137.6000061,580488,250.8935182,258.7935791,5.201677799,-0.4715802968,-7.19394207,8.916097641,14.36282349,2.933761358,-5.115783215,-1.896853805,3.829874992,-5.227471828,-2.949465036,0.1225575358,-0.05693611875,-0.2561119497,0
104,6881,137.6199951,580488,250.9314553,258.7935791,5.29971981,-0.5369415283,-7.455387115,8.600369453,18.13817787,2.919692755,-5.143681526,-1.875607491,3.829874992,-5.227471828,-2.949465036,0.09114161134,-0.01068489254,-0.2447672933,0
104,6882,137.6399994,580488,250.9689674,258.7935791,5.332400322,-0.4388996661,-7.945596218,8.711808205,7.106386185,2.903546572,-5.171738625,-1.859703064,3.829874992,-5.227471828,-2.949465036,0.06147101521,0.02945767902,-0.2334226519,0
104,6883,137.6600037,580488,251.0061615,258.7935791,5.397761345,-0.5042608976,-8.043638229,8.711808205,16.25032806,2.886494398,-5.195517063,-1.852757812,3.829874992,-5.227471828,-2.949465036,0.05012637377,0.0696002543,-0.2342953235,0
104,6884,137.6799927,580488,251.0432166,258.7935791,5.528483868,-0.6676639915,-8.010957718,8.555387497,20.026371,2.867797136,-5.220052719,-1.848009825,3.829874992,-5.227471828,-2.949465036,0.05972568318,0.08705354482,-0.2220780253,0
104,6885,137.6999969,580488,251.0801768,258.7935791,5.495803356,-0.569622159,-8.108999252,8.495040894,14.36282349,2.846669197,-5.248155594,-1.843662143,3.829874992,-5.227471828,-2.949465036,0.06757966429,0.09141686559,-0.2116060406,0
104,6886,137.7200012,580488,251.1170501,258.7935791,5.430441856,-0.5369415283,-8.370444298,8.959267616,16.25032806,2.826167822,-5.273875713,-1.840855241,3.829874992,-5.227471828,-2.949465036,0.07630631328,0.07570890337,-0.1958980858,0
104,6887,137.7400055,580488,251.1538672,258.7935791,5.495803356,-0.569622159,-8.631889343,8.547867775,12.62081528,2.804074049,-5.295781612,-1.841980696,3.829874992,-5.227471828,-2.949465036,0.08590562642,0.05651028454,-0.1828081161,0
104,6888,137.7599945,580488,251.1907068,258.7935791,5.626525879,-0.5042608976,-8.599208832,8.365357399,16.25032806,2.78007555,-5.316534519,-1.848206282,3.829874992,-5.227471828,-2.949465036,0.1199395433,0.03556633368,-0.1819354445,0
104,6889,137.7799988,580488,251.2276709,258.7935791,5.267038822,-0.5369415283,-8.599208832,9.023635864,10.73396969,2.758015394,-5.338984966,-1.855280042,3.829874992,-5.227471828,-2.949465036,0.146992147,0.0198583696,-0.1828081161,0
104,6890,137.8000031,580488,251.2647765,258.7935791,5.29971981,-0.4715802968,-8.56652832,8.821837425,12.62081528,2.733192444,-5.355623722,-1.858743668,3.829874992,-5.227471828,-2.949465036,0.2080786675,0.00676839985,-0.1723361313,0
104,6891,137.8200073,580488,251.3019514,258.7935791,5.430441856,-0.5369415283,-8.468486786,8.585401535,14.36282349,2.709993362,-5.372419357,-1.862107396,3.829874992,-5.227471828,-2.949465036,0.2368766069,-0.01592088118,-0.1723361313,0
104,6892,137.8399963,580488,251.3391936,258.7935791,5.365080833,-0.6349834204,-8.20704174,8.966443062,16.25032806,2.687128067,-5.392497063,-1.865004182,3.829874992,-5.227471828,-2.949465036,0.3206523955,-0.03861016035,-0.1609914899,0
104,6893,137.8600006,580488,251.3764936,258.7935791,5.234358311,-0.6676639915,-8.403124809,8.755986214,18.13817787,2.663805962,-5.414335728,-1.862621784,3.829874992,-5.227471828,-2.949465036,0.3817389309,-0.04471881315,-0.1426655352,0
104,6894,137.8800049,580488,251.4137461,258.7935791,5.463122845,-0.5369415283,-8.337763786,8.711808205,22.78665543,2.638857126,-5.432363987,-1.862390876,3.829874992,-5.227471828,-2.949465036,0.4620240629,-0.05431812257,-0.1383022219,0
104,6895,137.8999939,580488,251.4509939,258.7935791,5.332400322,-0.4715802968,-8.20704174,9.214038849,16.25032806,2.618861437,-5.453539848,-1.863627195,3.829874992,-5.227471828,-2.949465036,0.5108932853,-0.05082746595,-0.1479015201,0
104,6896,137.9199982,580488,251.4882664,258.7935791,5.29971981,-0.3081772029,-8.174360275,8.807246208,16.25032806,2.601177692,-5.472937584,-1.861553192,3.829874992,-5.227471828,-2.949465036,0.5606352091,-0.0377374962,-0.1496468484,0
104,6897,137.9400024,580488,251.5254975,258.7935791,5.397761345,-0.4062190652,-8.108999252,8.697031975,16.25032806,2.587837219,-5.490604401,-1.858950257,3.829874992,-5.227471828,-2.949465036,0.5876877904,-0.04297348484,-0.1522648484,0
104,6898,137.9600067,580488,251.5626765,258.7935791,5.430441856,-0.3081772029,-8.20704174,9.366318703,20.026371,2.574908733,-5.510715961,-1.856192946,3.829874992,-5.227471828,-2.949465036,0.6199764013,-0.06129943952,-0.1496468484,0
104,6899,137.9799957,580488,251.5998004,258.7935791,5.29971981,-0.3735384345,-7.912915707,8.807246208,14.36282349,2.565126657,-5.529415607,-1.855695367,3.829874992,-5.227471828,-2.949465036,0.6225943565,-0.06566276401,-0.1479015201,0
104,6900,138,580488,251.6369143,258.7935791,5.463122845,-0.4388996661,-7.880235195,8.53280735,18.13817787,2.556199789,-5.548634529,-1.848854661,3.829874992,-5.227471828,-2.949465036,0.6487743258,-0.09009737521,-0.1618641615,0
104,6901,138.0200043,580488,251.6738914,258.7935791,5.332400322,-0.3081772029,-7.978277206,9.108751297,18.13817787,2.548625469,-5.570936203,-1.843099833,3.829874992,-5.227471828,-2.949465036,0.6321936846,-0.109295994,-0.1758267879,0
104,6902,138.0399933,580488,251.7107534,258.7935791,5.332400322,-0.4062190652,-8.20704174,8.748638153,20.026371,2.544236898,-5.589090347,-1.837932587,3.829874992,-5.227471828,-2.949465036,0.6182310581,-0.1171499789,-0.1871714294,0
104,6903,138.0599976,580488,251.747512,258.7935791,5.463122845,-0.4715802968,-7.912915707,8.908883095,16.25032806,2.538962126,-5.605577946,-1.836799622,3.829874992,-5.227471828,-2.949465036,0.5623804927,-0.1284946203,-0.2020067275,0
104,6904,138.0800018,580488,251.784248,258.7935791,5.397761345,-0.4062190652,-8.108999252,9.023635864,25.54767609,2.535573959,-5.627235889,-1.831810951,3.829874992,-5.227471828,-2.949465036,0.4969306588,-0.1564198881,-0.208115384,0
104,6905,138.1000061,580488,251.8208842,258.7935791,5.332400322,-0.2754965723,-7.945596218,8.585401535,18.13817787,2.534020901,-5.645632744,-1.829649091,3.829874992,-5.227471828,-2.949465036,0.4210088253,-0.1703825146,-0.2159693688,0
104,6906,138.1199951,580488,251.8574772,258.7935791,5.626525879,-0.5042608976,-7.749512672,8.53280735,18.13817787,2.536310434,-5.663926125,-1.823940039,3.829874992,-5.227471828,-2.949465036,0.384356916,-0.1581652164,-0.2168420255,0
104,6907,138.1399994,580488,251.893956,258.7935791,5.593845367,-0.4388996661,-7.553429127,8.901661873,16.25032806,2.537027359,-5.690565109,-1.817598581,3.829874992,-5.227471828,-2.949465036,0.3311243951,-0.1311126053,-0.2168420255,0
104,6908,138.1600037,580488,251.930308,258.7935791,5.332400322,-0.3408578038,-7.716832161,8.799942017,20.026371,2.540055513,-5.718444347,-1.807406664,3.829874992,-5.227471828,-2.949465036,0.2909817994,-0.1040600091,-0.2150966972,0
104,6909,138.1799927,580488,251.9664561,258.7935791,5.463122845,-0.4062190652,-7.814873695,8.748638153,20.026371,2.544070244,-5.740159512,-1.797546625,3.829874992,-5.227471828,-2.949465036,0.2560752332,-0.07002608478,-0.2028793991,0
104,6910,138.1999969,580488,252.002407,258.7935791,5.463122845,-0.6676639915,-7.553429127,8.472299576,14.36282349,2.547756195,-5.763750553,-1.790642142,3.829874992,-5.227471828,-2.949465036,0.2211686373,-0.04471881315,-0.190662086,0
104,6911,138.2200012,580488,252.0382199,258.7935791,5.528483868,-0.569622159,-7.422706604,8.901661873,16.25032806,2.547183752,-5.791102886,-1.779267073,3.829874992,-5.227471828,-2.949465036,0.1888800561,-0.001085581956,-0.1810627878,0
104,6912,138.2400055,580488,252.0738052,258.7935791,5.757248402,-0.7003446221,-7.684151649,8.916097641,20.89796066,2.549271822,-5.820355892,-1.766109824,3.829874992,-5.227471828,-2.949465036,0.1644454449,0.02073103376,-0.1732088029,0
104,6913,138.2599945,580488,252.1091274,258.7935791,5.691886902,-0.8310671449,-7.978277206,8.697031975,21.91490746,2.549577236,-5.851633072,-1.759815812,3.829874992,-5.227471828,-2.949465036,0.1373928338,0.002405076521,-0.155755505,0
104,6914,138.2799988,580488,252.1443237,258.7935791,5.463122845,-0.8310671449,-7.749512672,9.073383331,14.36282349,2.546720743,-5.879488945,-1.758246779,3.829874992,-5.227471828,-2.949465036,0.09986826032,-0.02028420381,-0.1365568787,0
104,6915,138.3000031,580488,252.1794887,258.7935791,5.65920639,-0.7003446221,-7.520748138,9.165055275,23.80378914,2.543268204,-5.905432701,-1.750517964,3.829874992,-5.227471828,-2.949465036,0.07019765675,-0.06129943952,-0.1042682976,0
104,6916,138.3200073,580488,252.214499,258.7935791,5.65920639,-0.6676639915,-7.684151649,8.850948334,12.62081528,2.543495655,-5.936322212,-1.740456343,3.829874992,-5.227471828,-2.949465036,0.03790906817,-0.1162773147,-0.07983368635,0
104,6917,138.3399963,580488,252.2493082,258.7935791,5.463122845,-0.863747716,-7.684151649,9.468740463,20.026371,2.544171333,-5.965759277,-1.73322773,3.829874992,-5.227471828,-2.949465036,-0.006596826948,-0.1564198881,-0.0667437166,0
104,6918,138.3600006,580488,252.2839727,258.7935791,5.561164379,-0.9291089773,-7.357345104,9.311232567,17.1216011,2.54023385,-5.993056774,-1.72428298,3.829874992,-5.227471828,-2.949465036,-0.02928610705,-0.1895811409,-0.04143644124,0
104,6919,138.3800049,580488,252.3184584,258.7935791,5.528483868,-0.7983865142,-7.161261559,9.576782227,18.13817787,2.535771847,-6.025897026,-1.710402966,3.829874992,-5.227471828,-2.949465036,-0.05459338054,-0.216633752,-0.02747380733,0
104,6920,138.3999939,580488,252.3526664,258.7935791,5.397761345,-0.863747716,-7.553429127,9.556617737,8.992571831,2.53393364,-6.060106754,-1.692505717,3.829874992,-5.227471828,-2.949465036,-0.08077331632,-0.23932302,-0.01525650267,0
104,6921,138.4199982,580488,252.3865165,258.7935791,5.29971981,-0.9944702387,-7.488067627,9.7629776,18.13817787,2.529749393,-6.08959341,-1.680311322,3.829874992,-5.227471828,-2.949465036,-0.07117401063,-0.2436863482,-0.001293868292,0
104,6922,138.4400024,580488,252.4201228,258.7935791,5.332400322,-0.6676639915,-7.161261559,9.808973312,21.91490746,2.522601128,-6.119427681,-1.666013956,3.829874992,-5.227471828,-2.949465036,-0.08426398039,-0.2655029595,0.011796101,0
104,6923,138.4600067,580488,252.4534431,258.7935791,5.267038822,-0.7330252528,-7.586109638,10.04859543,14.36282349,2.522350073,-6.15226078,-1.645766616,3.829874992,-5.227471828,-2.949465036,-0.09560862184,-0.2672483027,0.02750406414,0
104,6924,138.4799957,580488,252.4863584,258.7935791,5.267038822,-0.9944702387,-7.978277206,9.570065498,23.80378914,2.520002842,-6.181497574,-1.632437229,3.829874992,-5.227471828,-2.949465036,-0.05982936919,-0.2724842727,0.05019334331,0
104,6925,138.5,580488,252.5190071,258.7935791,5.365080833,-0.9944702387,-7.455387115,9.997271538,14.36282349,2.512028456,-6.209490776,-1.626173615,3.829874992,-5.227471828,-2.949465036,-0.006596826948,-0.2881922424,0.07113729417,0
104,6926,138.5200043,580488,252.5515306,258.7935791,5.397761345,-0.6349834204,-7.19394207,9.789287567,16.25032806,2.505261183,-6.244711399,-1.611155987,3.829874992,-5.227471828,-2.949465036,0.04052706435,-0.294300884,0.09644456953,0
104,6927,138.5399933,580488,252.5837537,258.7935791,5.365080833,-0.4388996661,-6.83445549,9.815526009,14.36282349,2.506327629,-6.282176018,-1.591261983,3.829874992,-5.227471828,-2.949465036,0.1155762225,-0.2768476009,0.1182611883,0
104,6928,138.5599976,580488,252.615579,258.7935791,5.201677799,-0.6676639915,-6.703732967,9.696889877,20.026371,2.512056112,-6.322159767,-1.564224601,3.829874992,-5.227471828,-2.949465036,0.2080786675,-0.2576489747,0.1365871429,0
104,6929,138.5800018,580489,254.7040999,263.8281555,4.999181271,-0.5297415257,-6.025943756,10.04859543,5.220543861,3.995892286,-7.030360699,-2.964741945,4.052105427,-7.125638008,-3.193293095,0.2851235271,-0.2244721502,0.1593201011,0
104,6930,138.6000061,580489,254.7633947,263.8281555,4.933819771,-0.4316996634,-5.82986021,9.815526009,18.13817787,4.009431839,-7.072320938,-2.91909337,4.052105427,-7.125638008,-3.193293095,0.3662813306,-0.1764755845,0.1715373993,0
104,6931,138.6199951,580489,254.8217766,263.8281555,5.489390373,-0.5624221563,-5.993263245,10.00370216,16.25032806,4.025853157,-7.114274025,-2.869021177,4.052105427,-7.125638008,-3.193293095,0.4456938207,-0.1214977205,0.1767733991,0
104,6932,138.6399994,580489,254.879157,263.8281555,4.933819771,-0.5624221563,-5.960582733,9.958605766,16.25032806,4.044794083,-7.165415764,-2.826277256,4.052105427,-7.125638008,-3.193293095,0.5163796544,-0.08397313952,0.1811367124,0
104,6933,138.6600037,580489,254.9356826,263.8281555,4.705055237,-0.4643802941,-5.764499187,9.900323868,8.992571831,4.061308384,-7.207182884,-2.778515816,4.052105427,-7.125638008,-3.193293095,0.5722301602,-0.03510392085,0.1837547123,0
104,6934,138.6799927,580489,254.9912529,263.8281555,5.097222805,-0.7911865115,-5.82986021,9.906816483,18.13817787,4.079800129,-7.245557785,-2.725129128,4.052105427,-7.125638008,-3.193293095,0.6062641144,-0.008923980407,0.189863354,0
104,6935,138.6999969,580489,255.0457555,263.8281555,5.227945328,-0.5297415257,-6.25470829,10.13778496,21.91490746,4.096586704,-7.291875839,-2.676533937,4.052105427,-7.125638008,-3.193293095,0.6298260689,-0.0001973343024,0.1950993538,0
104,6936,138.7200012,580489,255.0992862,263.8281555,4.901139259,-0.2356159538,-6.352750301,10.13778496,20.026371,4.120584488,-7.334572792,-2.636120558,4.052105427,-7.125638008,-3.193293095,0.6612419486,0.0111473063,0.1977173388,0
104,6937,138.7400055,580489,255.1520086,263.8281555,4.737736225,-0.7911865115,-6.156666279,10.22619534,18.13817787,4.149430752,-7.368187428,-2.594150782,4.052105427,-7.125638008,-3.193293095,0.6743319631,0.01987395249,0.2038259953,0
104,6938,138.7599945,580489,255.2038916,263.8281555,5.162584305,-0.4643802941,-6.61419487,10.40694141,18.13817787,4.168711185,-7.403720856,-2.548722744,4.052105427,-7.125638008,-3.193293095,0.6638599634,0.02598260529,0.2064439952,0
104,6939,138.7799988,580489,255.254866,263.8281555,4.999181271,-0.2356159538,-6.941001415,10.4562521,16.25032806,4.199157715,-7.439612865,-2.513783932,4.052105427,-7.125638008,-3.193293095,0.6525153518,0.03209125623,0.2204066217,0
104,6940,138.8000031,580489,255.3051417,263.8281555,4.901139259,-0.3990190625,-6.941001415,10.36360264,16.25032806,4.234674454,-7.467615604,-2.482562304,4.052105427,-7.125638008,-3.193293095,0.6132454276,0.03034592792,0.2317512631,0
104,6941,138.8200073,580489,255.354793,263.8281555,4.901139259,-0.595102787,-7.104404449,10.4562521,23.80378914,4.268476486,-7.494204521,-2.450883865,4.052105427,-7.125638008,-3.193293095,0.5800841451,0.02510993928,0.2439685613,0
104,6942,138.8399963,580489,255.4038106,263.8281555,4.933819771,-0.4643802941,-7.235126972,10.4992094,14.36282349,4.300758839,-7.519890785,-2.422643185,4.052105427,-7.125638008,-3.193293095,0.4954356849,0.03209125623,0.2561858594,0
104,6943,138.8600006,580489,255.4522635,263.8281555,4.933819771,-0.6604639888,-7.431210518,10.4992094,16.25032806,4.337774277,-7.543302536,-2.396198034,4.052105427,-7.125638008,-3.193293095,0.4465664625,0.04692655429,0.2649125159,0
104,6944,138.8800049,580489,255.5001875,263.8281555,4.901139259,-0.7258252501,-7.62729454,10.54199028,21.91490746,4.373181343,-7.565576077,-2.373845816,4.052105427,-7.125638008,-3.193293095,0.3645359874,0.04169056937,0.2701485157,0
104,6945,138.8999939,580489,255.5476644,263.8281555,4.999181271,-0.6931446195,-7.725336075,10.66930485,12.62081528,4.409050941,-7.585253239,-2.354810238,4.052105427,-7.125638008,-3.193293095,0.3191574216,0.04256323352,0.2814931571,0
104,6946,138.9199982,580489,255.5947606,263.8281555,5.031861782,-0.595102787,-8.117503166,10.62098408,23.80378914,4.447940826,-7.604790688,-2.33788228,4.052105427,-7.125638008,-3.193293095,0.2615615726,0.03907257318,0.2928377986,0
104,6947,138.9400024,580489,255.6415182,263.8281555,4.83577776,-0.6277834177,-8.411629677,10.66930485,18.13817787,4.490858078,-7.620064735,-2.327483416,4.052105427,-7.125638008,-3.193293095,0.1996023804,0.03994523734,0.3033097684,0
104,6948,138.9600067,580489,255.6880679,263.8281555,4.933819771,-0.5297415257,-8.248226166,10.84265995,20.026371,4.533290386,-7.629094124,-2.32076025,4.052105427,-7.125638008,-3.193293095,0.1498605013,0.04169056937,0.3163997233,0
104,6949,138.9799957,580489,255.7344831,263.8281555,5.129903316,-0.4643802941,-8.607712746,10.71740723,16.25032806,4.579178333,-7.639982224,-2.311130524,4.052105427,-7.125638008,-3.193293095,0.1123359203,0.04867188632,0.3286170363,0
104,6950,139,580489,255.7807057,263.8281555,4.966500282,-0.5624221563,-8.999880791,11.01328373,21.91490746,4.62952137,-7.649889469,-2.308801889,4.052105427,-7.125638008,-3.193293095,0.07830199599,0.05041721463,0.334725678,0
104,6951,139.0200043,580489,255.8268817,263.8281555,5.031861782,-0.595102787,-9.19596386,10.88408947,15.37912941,4.678268433,-7.653759003,-2.31252408,4.052105427,-7.125638008,-3.193293095,0.04775873572,0.04692655429,0.3451976776,0
104,6952,139.0399933,580489,255.8731322,263.8281555,5.227945328,-0.497060895,-9.359367371,11.01328373,21.91490746,4.728160381,-7.656672001,-2.320200205,4.052105427,-7.125638008,-3.193293095,0.03903209046,0.04954455048,0.3539243042,0
104,6953,139.0599976,580489,255.9195362,263.8281555,5.097222805,-0.5624221563,-9.980298996,10.97234154,20.026371,4.782586575,-7.660128593,-2.331516743,4.052105427,-7.125638008,-3.193293095,0.04077741876,0.03558191657,0.3609056175,0
104,6954,139.0800018,580489,255.9661666,263.8281555,4.901139259,-0.497060895,-10.37246609,11.30140877,18.13817787,4.836491585,-7.655826092,-2.353038311,4.052105427,-7.125638008,-3.193293095,0.05386738852,0.02249194682,0.3696322739,0
104,6955,139.1000061,580489,256.0132273,263.8281555,4.966500282,-0.5624221563,-10.30710506,11.05407333,16.25032806,4.891199589,-7.643867016,-2.379483461,4.052105427,-7.125638008,-3.193293095,0.07655666769,0.02249194682,0.3827222288,0
104,6956,139.1199951,580489,256.060817,263.8281555,5.195264816,-0.3990190625,-10.27442455,11.38077545,16.25032806,4.94608593,-7.633654118,-2.405398607,4.052105427,-7.125638008,-3.193293095,0.09488262981,0.01376529969,0.39930287,0
104,6957,139.1399994,580489,256.108925,263.8281555,4.933819771,-0.3663384318,-10.43782806,11.45959187,21.91490746,5.006895542,-7.625686169,-2.431209326,4.052105427,-7.125638008,-3.193293095,0.08266532421,0.01376529969,0.3958122134,0
104,6958,139.1600037,580489,256.1575491,263.8281555,4.901139259,-0.4316996634,-10.69927216,11.25580502,14.36282349,5.067122459,-7.61130476,-2.457495928,4.052105427,-7.125638008,-3.193293095,0.09750062227,0.01812862232,0.3897035718,0
104,6959,139.1799927,580489,256.2066991,263.8281555,5.162584305,-0.3663384318,-10.5358696,11.38077545,20.026371,5.127361298,-7.594056129,-2.488254547,4.052105427,-7.125638008,-3.193293095,0.09662795812,0.0111473063,0.3766135871,0
104,6960,139.1999969,580489,256.2564642,263.8281555,5.097222805,-0.5297415257,-10.92803669,11.54900837,18.13817787,5.192037582,-7.581411839,-2.517304182,4.052105427,-7.125638008,-3.193293095,0.09924595058,0.004165988881,0.3827222288,0
104,6961,139.2200012,580489,256.3068102,263.8281555,4.737736225,-0.4316996634,-11.12412071,11.42025185,18.13817787,5.255025864,-7.564958096,-2.553479671,4.052105427,-7.125638008,-3.193293095,0.1123359203,0.006783982739,0.3757409155,0
104,6962,139.2400055,580489,256.3578798,263.8281555,4.933819771,-0.5624221563,-10.82999516,11.38077545,15.37912941,5.317486286,-7.539778709,-2.589613199,4.052105427,-7.125638008,-3.193293095,0.1376431882,-0.002815328073,0.3687596023,0
104,6963,139.2599945,580489,256.4096721,263.8281555,5.097222805,-0.2682965696,-10.76463413,11.50997353,16.25032806,5.380216599,-7.520992279,-2.622442484,4.052105427,-7.125638008,-3.193293095,0.1524784863,-0.00630598655,0.3705049455,0
104,6964,139.2799988,580489,256.462121,263.8281555,4.705055237,-0.2356159538,-10.86267567,11.38077545,18.13817787,5.450678349,-7.502369404,-2.653012276,4.052105427,-7.125638008,-3.193293095,0.148115173,-0.00543332193,0.3696322739,0
104,6965,139.3000031,580489,256.5151812,263.8281555,4.672374725,-0.6277834177,-10.89535618,11.42025185,21.91490746,5.518981457,-7.475928783,-2.681925058,4.052105427,-7.125638008,-3.193293095,0.168186456,-0.00194266357,0.3670142889,0
104,6966,139.3200073,580489,256.5688197,263.8281555,4.999181271,-0.4643802941,-10.89535618,11.81863308,16.25032806,5.58158493,-7.451533794,-2.713371515,4.052105427,-7.125638008,-3.193293095,0.1489878297,0.000675330346,0.3574149609,0
104,6967,139.3399963,580489,256.6230871,263.8281555,4.999181271,-0.2356159538,-11.05875969,11.58791065,18.13817787,5.65169239,-7.430178165,-2.745554686,4.052105427,-7.125638008,-3.193293095,0.1516058296,0.01900128834,0.3600329757,0
104,6968,139.3600006,580489,256.6779982,263.8281555,4.868458748,-0.3336578012,-11.12412071,11.54900837,14.36282349,5.727135181,-7.404708862,-2.778614998,4.052105427,-7.125638008,-3.193293095,0.148115173,0.03383658454,0.3635236323,0
104,6969,139.3800049,580489,256.7335705,263.8281555,4.901139259,-0.595102787,-10.99339771,11.54900837,16.25032806,5.800794125,-7.376824856,-2.812162399,4.052105427,-7.125638008,-3.193293095,0.1271712184,0.02685526945,0.3626509607,0
104,6970,139.3999939,580489,256.7898138,263.8281555,5.064542294,-0.3336578012,-10.92803669,11.46520042,16.25032806,5.871298313,-7.352291107,-2.845053434,4.052105427,-7.125638008,-3.193293095,0.1175719053,0.02336461097,0.3626509607,0
104,6971,139.4199982,580489,256.8467148,263.8281555,5.097222805,-0.4316996634,-10.9607172,11.62668228,21.91490746,5.948796749,-7.327842712,-2.875641823,4.052105427,-7.125638008,-3.193293095,0.08528331667,0.01812862232,0.3609056175,0
104,6972,139.4400024,580489,256.9042277,263.8281555,5.129903316,-0.2029353231,-11.0914402,11.78049374,21.91490746,6.026147842,-7.303830624,-2.907314539,4.052105427,-7.125638008,-3.193293095,0.05735804886,-0.004560657311,0.3591603041,0
104,6973,139.4600067,580489,256.962374,263.8281555,5.097222805,0.02582900971,-10.82999516,11.50997353,21.91490746,6.108785152,-7.276399612,-2.939440966,4.052105427,-7.125638008,-3.193293095,0.01459748112,-0.01154197473,0.3547969759,0
104,6974,139.4799957,580489,257.0211628,263.8281555,5.064542294,0.05850962922,-10.73195362,11.70384121,21.91490746,6.194910526,-7.248428345,-2.96476531,4.052105427,-7.125638008,-3.193293095,-0.04474371299,-0.00194266357,0.3425796628,0
104,6975,139.5,580489,257.0804581,263.8281555,4.83577776,-0.1375740916,-10.56855011,11.62668228,27.43721962,6.281590462,-7.220279217,-2.987632036,4.052105427,-7.125638008,-3.193293095,-0.1328828335,-0.002815328073,0.3259990513,0
104,6976,139.5200043,580489,257.1402107,263.8281555,4.672374725,-0.1048934683,-10.27442455,11.66532612,12.62081528,6.362438679,-7.191950798,-3.007454395,4.052105427,-7.125638008,-3.193293095,-0.1983326823,0.007656647358,0.3111637533,0
104,6977,139.5399933,580489,257.2003598,263.8281555,4.770416737,0.05850962922,-9.914937973,11.78049374,21.91490746,6.441218376,-7.163702965,-3.020836592,4.052105427,-7.125638008,-3.193293095,-0.2829811573,0.0216192808,0.2954557836,0
104,6978,139.5599976,580489,257.2607766,263.8281555,4.737736225,-0.2029353231,-10.07834053,11.70384121,21.91490746,6.522729397,-7.138800144,-3.02744174,4.052105427,-7.125638008,-3.193293095,-0.3719929457,0.03121859208,0.2814931571,0
104,6979,139.5800018,580490,258.1794691,267.2882385,4.537580967,0.02947444282,-9.975974083,11.85665035,16.25032806,6.6580863,-7.922712326,-2.74750638,6.51805687,-8.055093765,-2.626135349,-0.4697532058,0.03130792454,0.2764993608,0
104,6980,139.6000061,580490,258.2344192,267.2882385,4.700984478,0.1275162995,-9.681848526,11.89994907,20.026371,6.735725403,-7.898706913,-2.754794836,6.51805687,-8.055093765,-2.626135349,-0.5456750393,0.05050654709,0.2677727044,0
104,6981,139.6199951,580490,258.2895151,267.2882385,4.570261955,0.1601969153,-9.779891014,12.05560207,25.54767609,6.815074444,-7.879367352,-2.757691145,6.51805687,-8.055093765,-2.626135349,-0.624214828,0.05748786405,0.2581734061,0
104,6982,139.6399994,580490,258.344669,267.2882385,4.439539433,0.1275162995,-9.518445969,12.24607182,25.54767609,6.892172337,-7.857485294,-2.761912584,6.51805687,-8.055093765,-2.626135349,-0.6905373335,0.06795983762,0.2468287498,0
104,6983,139.6600037,580490,258.3999072,267.2882385,4.504900455,0.2582387924,-9.355042458,12.1670723,20.026371,6.965011597,-7.837095261,-2.761615515,6.51805687,-8.055093765,-2.626135349,-0.7306799293,0.08541313559,0.2415927649,0
104,6984,139.6799927,580490,258.4551395,267.2882385,4.276136398,0.2909193933,-9.322361946,12.1670723,21.91490746,7.038575649,-7.818588734,-2.758718252,6.51805687,-8.055093765,-2.626135349,-0.7778038383,0.08803112805,0.2293754667,0
104,6985,139.6999969,580490,258.5103139,267.2882385,4.504900455,0.2909193933,-9.191638947,12.05560207,29.32710648,7.107795715,-7.79754734,-2.754470587,6.51805687,-8.055093765,-2.626135349,-0.809219718,0.09501244128,0.2180308253,0
104,6986,139.7200012,580490,258.5654033,267.2882385,4.537580967,0.6830868125,-9.289681435,11.89994907,21.91490746,7.17753458,-7.781919003,-2.750123501,6.51805687,-8.055093765,-2.626135349,-0.8327816725,0.125555709,0.2058135122,0
104,6987,139.7400055,580490,258.6204058,267.2882385,4.537580967,0.2909193933,-9.714529037,12.20926857,23.80378914,7.251646996,-7.762640476,-2.746398449,6.51805687,-8.055093765,-2.626135349,-0.8842688799,0.1351550221,0.1997048706,0
104,6988,139.7599945,580490,258.6753337,267.2882385,4.145413876,-0.03588679805,-9.518445969,12.31934643,17.1216011,7.317398071,-7.745267868,-2.753572702,6.51805687,-8.055093765,-2.626135349,-0.955827415,0.1648256183,0.1796335727,0
104,6989,139.7799988,580490,258.7304052,267.2882385,4.24345541,0.192877546,-9.779891014,12.28799629,16.25032806,7.370373249,-7.728816986,-2.757386446,6.51805687,-8.055093765,-2.626135349,-0.9872433543,0.1944962144,0.1700342745,0
104,6990,139.8000031,580490,258.7855529,267.2882385,4.472219944,0.1275162995,-10.04133511,12.1670723,16.25032806,7.425097466,-7.710430145,-2.766395092,6.51805687,-8.055093765,-2.626135349,-1.01167798,0.2067135125,0.1691616029,0
104,6991,139.8200073,580490,258.8408808,267.2882385,4.570261955,0.2255581617,-10.04133511,12.39218807,25.54767609,7.478302956,-7.695456028,-2.782913208,6.51805687,-8.055093765,-2.626135349,-1.000333309,0.2145674974,0.1691616029,0
104,6992,139.8399963,580490,258.8965391,267.2882385,4.570261955,0.3889612556,-10.00865459,12.32456398,20.026371,7.530816078,-7.682178974,-2.800578833,6.51805687,-8.055093765,-2.626135349,-0.9689173698,0.2119494975,0.1639256179,0
104,6993,139.8600006,580490,258.9525507,267.2882385,4.504900455,0.2582387924,-10.10669708,12.31934643,10.73396969,7.58244133,-7.668598175,-2.817922592,6.51805687,-8.055093765,-2.626135349,-0.9261568189,0.2040955275,0.1534536332,0
104,6994,139.8800049,580490,259.0089091,267.2882385,4.439539433,0.2582387924,-10.43350315,12.58777237,23.80378914,7.627737045,-7.656444073,-2.837982655,6.51805687,-8.055093765,-2.626135349,-0.8441263437,0.1944962144,0.1447269917,0
104,6995,139.8999939,580490,259.0656688,267.2882385,4.635622978,0.3562806547,-10.36814213,12.36102295,20.89796066,7.668331623,-7.642546177,-2.864441633,6.51805687,-8.055093765,-2.626135349,-0.7411519289,0.1875148863,0.141236335,0
104,6996,139.9199982,580490,259.1229576,267.2882385,4.66830349,0.2909193933,-10.46618366,12.36102295,17.1216011,7.710030556,-7.631900311,-2.8913064,6.51805687,-8.055093765,-2.626135349,-0.6250874996,0.177915588,0.1298916936,0
104,6997,139.9400024,580490,259.1807837,267.2882385,4.439539433,0.2909193933,-10.43350315,12.62347031,21.91490746,7.748228073,-7.62300396,-2.920922995,6.51805687,-8.055093765,-2.626135349,-0.529094398,0.1560989618,0.1194197163,0
104,6998,139.9600067,580490,259.2392022,267.2882385,4.472219944,0.4870031178,-10.43350315,12.4336195,16.25032806,7.781225681,-7.612072468,-2.948813677,6.51805687,-8.055093765,-2.626135349,-0.4322286248,0.1595896184,0.1054570824,0
104,6999,139.9799957,580490,259.2981785,267.2882385,4.733664989,0.4870031178,-10.43350315,12.4336195,23.80378914,7.815601349,-7.599752426,-2.976821184,6.51805687,-8.055093765,-2.626135349,-0.3423441648,0.1543536335,0.08625846356,0
104,7000,140,580490,259.3577149,267.2882385,4.537580967,0.4870031178,-10.62958622,12.83056068,20.026371,7.851669788,-7.591466904,-3.006885052,6.51805687,-8.055093765,-2.626135349,-0.2760216594,0.1438816637,0.07055050135,0
104,7001,140.0200043,580490,259.4178526,267.2882385,4.570261955,0.323600024,-10.66226768,12.69456482,23.80378914,7.883117199,-7.579564095,-3.039505482,6.51805687,-8.055093765,-2.626135349,-0.2262797654,0.1325370222,0.05047921464,0
104,7002,140.0399933,580490,259.4786427,267.2882385,4.635622978,0.4870031178,-10.66226768,12.7602253,21.91490746,7.911227703,-7.570252895,-3.073428392,6.51805687,-8.055093765,-2.626135349,-0.1599572599,0.1334096938,0.03651658073,0
104,7003,140.0599976,580490,259.5401113,267.2882385,4.145413876,0.323600024,-10.40082264,13.08849239,21.91490746,7.941538811,-7.559748173,-3.107658625,6.51805687,-8.055093765,-2.626135349,-0.08578076959,0.1203197166,0.01731795818,0
104,7004,140.0800018,580490,259.6022644,267.2882385,4.210774899,0.3562806547,-10.46618366,12.94528008,21.91490746,7.96310997,-7.546401978,-3.133961439,6.51805687,-8.055093765,-2.626135349,-0.03603888303,0.1142110676,0.005100653507,0
104,7005,140.1000061,580490,259.6649437,267.2882385,4.537580967,0.3562806547,-10.53154469,13.08358002,18.13817787,7.985168934,-7.532903671,-3.161936998,6.51805687,-8.055093765,-2.626135349,-0.002877627499,0.1159563959,-0.005371321924,0
104,7006,140.1199951,580490,259.7281824,267.2882385,4.537580967,0.4543224871,-10.5642252,12.94528008,20.026371,8.010790825,-7.523096561,-3.193471432,6.51805687,-8.055093765,-2.626135349,0.01370300073,0.1063570827,-0.02195194922,0
104,7007,140.1399994,580490,259.7920518,267.2882385,4.047371864,0.2582387924,-10.36814213,13.15218353,17.1216011,8.037362099,-7.511387825,-3.22548151,6.51805687,-8.055093765,-2.626135349,0.02941096388,0.1011210978,-0.0376599133,0
104,7008,140.1600037,580490,259.8565615,267.2882385,4.30881691,0.3889612556,-10.43350315,13.12282562,25.54767609,8.055093765,-7.496608734,-3.250664234,6.51805687,-8.055093765,-2.626135349,0.04337359592,0.1011210978,-0.05249521136,0
104,7009,140.1799927,580490,259.9215748,267.2882385,4.341497421,0.6177256107,-10.36814213,13.18635082,21.91490746,8.077645302,-7.482795238,-3.2787292,6.51805687,-8.055093765,-2.626135349,0.05297290906,0.09326711297,-0.06383985281,0
104,7010,140.1999969,580490,259.9871493,267.2882385,3.982010603,0.2255581617,-10.07401657,13.28832626,23.80378914,8.104011536,-7.466382504,-3.305444241,6.51805687,-8.055093765,-2.626135349,0.08438883722,0.09413977712,-0.06558518112,0
104,7011,140.2200012,580490,260.0532582,267.2882385,4.080052376,0.2255581617,-9.845252037,13.28832626,20.026371,8.12085247,-7.451915741,-3.324720144,6.51805687,-8.055093765,-2.626135349,0.1245314106,0.09675776958,-0.06820317358,0
104,7012,140.2400055,580490,260.1197526,267.2882385,4.178094387,0.5196837187,-9.91061306,13.18635082,21.91490746,8.139727592,-7.439794064,-3.34044838,6.51805687,-8.055093765,-2.626135349,0.129767403,0.1046117544,-0.08216580749,0
104,7013,140.2599945,580490,260.1865616,267.2882385,4.080052376,0.4543224871,-9.779891014,13.46611595,27.43721962,8.163993835,-7.424095154,-3.357577324,6.51805687,-8.055093765,-2.626135349,0.1018421277,0.1150837317,-0.08827446401,0
104,7014,140.2799988,580490,260.2537132,267.2882385,4.080052376,-0.00320617808,-9.681848526,13.25442219,23.80378914,8.186515808,-7.40824461,-3.37163353,6.51805687,-8.055093765,-2.626135349,0.09311547875,0.11682906,-0.09263778478,0
104,7015,140.3000031,580490,260.3211458,267.2882385,4.439539433,0.3562806547,-10.04133511,13.15218353,25.54767609,8.202468872,-7.398583889,-3.384652853,6.51805687,-8.055093765,-2.626135349,0.08962482214,0.1177017242,-0.1144544035,0
104,7016,140.3200073,580490,260.3888389,267.2882385,4.406858444,0.4216418862,-10.46618366,13.3654995,18.13817787,8.226862907,-7.386091709,-3.406351805,6.51805687,-8.055093765,-2.626135349,0.07740751654,0.1142110676,-0.1240537092,0
104,7017,140.3399963,580490,260.4569659,267.2882385,4.145413876,0.3562806547,-10.40082264,13.18635082,21.91490746,8.250015259,-7.368945599,-3.435517311,6.51805687,-8.055093765,-2.626135349,0.09573347867,0.1089750752,-0.1188177243,0
104,7018,140.3600006,580490,260.5256763,267.2882385,3.949330091,0.02947444282,-10.04133511,13.08358002,18.13817787,8.2688694,-7.349137306,-3.46160531,6.51805687,-8.055093765,-2.626135349,0.1219134107,0.09763043374,-0.1188177243,0
104,7019,140.3800049,580490,260.5949084,267.2882385,4.145413876,-0.03588679805,-10.20473862,13.25442219,25.54767609,8.281524658,-7.332941532,-3.480146646,6.51805687,-8.055093765,-2.626135349,0.1550746709,0.08977645636,-0.1161997318,0
104,7020,140.3999939,580490,260.6645113,267.2882385,4.30881691,-0.1012480408,-10.10669708,13.15218353,20.026371,8.295004845,-7.31859827,-3.503278255,6.51805687,-8.055093765,-2.626135349,0.1725279689,0.08366779983,-0.1092184111,0
104,7021,140.4199982,580490,260.7345769,267.2882385,4.341497421,0.192877546,-9.943293571,13.04914284,25.54767609,8.309985161,-7.307412148,-3.525948286,6.51805687,-8.055093765,-2.626135349,0.1856179386,0.08803112805,-0.1092184111,0
104,7022,140.4400024,580490,260.8050958,267.2882385,4.080052376,0.06215506047,-9.812571526,13.36068916,18.13817787,8.33057785,-7.293414116,-3.545264959,6.51805687,-8.055093765,-2.626135349,0.1638013124,0.0889037922,-0.1066004187,0
104,7023,140.4600067,580490,260.8760011,267.2882385,4.047371864,-0.06856741756,-9.877932549,12.94528008,19.00960922,8.346577644,-7.277850151,-3.560353518,6.51805687,-8.055093765,-2.626135349,0.1411120296,0.0993757695,-0.1039824262,0
104,7024,140.4799957,580490,260.9472082,267.2882385,4.276136398,-0.1012480408,-9.845252037,13.04914284,23.80378914,8.360057831,-7.262457848,-3.576594353,6.51805687,-8.055093765,-2.626135349,0.132385388,0.1037390903,-0.09351044893,0
104,7025,140.5,580490,261.0187401,267.2882385,4.178094387,0.02947444282,-10.10669708,13.18635082,21.91490746,8.376013756,-7.250251293,-3.594057798,6.51805687,-8.055093765,-2.626135349,0.1053327844,0.1098477393,-0.08827446401,0
104,7026,140.5200043,580490,261.0906213,267.2882385,3.949330091,-0.1012480408,-9.975974083,13.07374954,21.91490746,8.39180851,-7.23255682,-3.615214109,6.51805687,-8.055093765,-2.626135349,0.07217153162,0.1238103732,-0.08042047918,0
104,7027,140.5399933,580490,261.1629255,267.2882385,4.210774899,-0.2319705188,-10.04133511,12.97999382,23.80378914,8.403153419,-7.21382761,-3.632408857,6.51805687,-8.055093765,-2.626135349,0.03988293931,0.1194470525,-0.07605715841,0
104,7028,140.5599976,580490,261.2355737,267.2882385,4.24345541,-0.1012480408,-9.714529037,13.03435612,23.80378914,8.415251732,-7.199305534,-3.65312624,6.51805687,-8.055093765,-2.626135349,-0.002877627499,0.0993757695,-0.06820317358,0
104,7029,140.5800018,580491,262.4895332,270.6047058,3.855844736,-0.09651919454,-9.356846809,13.1179266,21.91490746,8.351673126,-7.381716251,-4.012294292,8.225086212,-7.421782017,-4.023503304,-0.01132619753,0.09122869372,-0.06073983759,0
104,7030,140.6000061,580491,262.569779,270.6047058,4.11729002,-0.2926029265,-9.324166298,13.03435612,21.91490746,8.361654282,-7.366062164,-4.01757431,8.225086212,-7.421782017,-4.023503304,-0.004344880581,0.09559202194,-0.04939519614,0
104,7031,140.6199951,580491,262.6501305,270.6047058,4.313373566,-0.3906447589,-9.749013901,12.96512794,21.91490746,8.371740341,-7.356487751,-4.024758339,8.225086212,-7.421782017,-4.023503304,-0.0052175452,0.09297402203,-0.03368723392,0
104,7032,140.6399994,580491,262.7306257,270.6047058,4.280693054,-0.06383857131,-9.912417412,13.04914284,29.32710648,8.380766869,-7.347444057,-4.0414505,8.225086212,-7.421782017,-4.023503304,0.007872424088,0.08773803711,-0.01972460002,0
104,7033,140.6600037,580491,262.8114547,270.6047058,4.084609032,-0.4560060203,-9.814375877,12.82053661,23.80378914,8.393338203,-7.332267284,-4.060217857,8.225086212,-7.421782017,-4.023503304,0.03667035699,0.07901138812,-0.004889301956,0
104,7034,140.6799927,580491,262.8926591,270.6047058,4.084609032,-0.4886866212,-9.814375877,12.90051174,25.54767609,8.397689819,-7.320008278,-4.076344013,8.225086212,-7.421782017,-4.023503304,0.03143436834,0.04846812785,-0.0005259786267,0
104,7035,140.6999969,580491,262.974186,270.6047058,4.248012066,-0.1618804336,-9.650972366,12.96512794,23.80378914,8.401428223,-7.30782795,-4.092515469,8.225086212,-7.421782017,-4.023503304,0.02881637588,0.0222881902,0.01343665551,0
104,7036,140.7200012,580491,263.0560363,270.6047058,4.149970531,-0.22724168,-9.650972366,12.79041672,14.36282349,8.412759781,-7.294560432,-4.10642767,8.225086212,-7.421782017,-4.023503304,0.02968904004,0.00134423899,0.03176261112,0
104,7037,140.7400055,580491,263.1381648,270.6047058,4.084609032,-0.3252835274,-9.422207832,12.56221199,23.80378914,8.421922684,-7.28068018,-4.119646072,8.225086212,-7.421782017,-4.023503304,0.01049041841,-0.04054366425,0.03612593561,0
104,7038,140.7599945,580491,263.2205577,270.6047058,3.953886747,-0.2599222958,-9.128082275,12.85558701,25.54767609,8.429839134,-7.268798828,-4.128361702,8.225086212,-7.421782017,-4.023503304,-0.02092550881,-0.08766755462,0.03438060731,0
104,7039,140.7799988,580491,263.303125,270.6047058,4.215331554,-0.06383857131,-8.63787365,12.81552124,25.54767609,8.438481331,-7.256591797,-4.130539417,8.225086212,-7.421782017,-4.023503304,-0.04972344264,-0.1269374639,0.03612593561,0
104,7040,140.8000031,580491,263.3857358,270.6047058,4.11729002,-0.22724168,-8.441789627,12.67429256,17.1216011,8.455533981,-7.249230385,-4.125595093,8.225086212,-7.421782017,-4.023503304,-0.0689220652,-0.1696980298,0.03787126392,0
104,7041,140.8200073,580491,263.4682477,270.6047058,3.823164225,-0.1945610493,-8.14766407,12.92042828,27.43721962,8.46991539,-7.244582176,-4.116607666,8.225086212,-7.421782017,-4.023503304,-0.08026670665,-0.1862786561,0.04747057706,0
104,7042,140.8399963,580491,263.5505798,270.6047058,4.019248009,-0.1291998178,-8.245705605,12.66921997,23.80378914,8.482557297,-7.23834753,-4.09981823,8.225086212,-7.421782017,-4.023503304,-0.09684733301,-0.1662073731,0.05532455817,0
104,7043,140.8600006,580491,263.6325762,270.6047058,4.149970531,-0.1291998178,-8.441789627,12.63365173,25.54767609,8.498560905,-7.23379612,-4.086262703,8.225086212,-7.421782017,-4.023503304,-0.1369899064,-0.1304281205,0.06143321097,0
104,7044,140.8800049,580491,263.7143014,270.6047058,3.921205997,-0.2599222958,-8.474470139,12.97504044,25.54767609,8.515667915,-7.230194092,-4.077320576,8.225086212,-7.421782017,-4.023503304,-0.1910951138,-0.07806824148,0.07277785242,0
104,7045,140.8999939,580491,263.7958478,270.6047058,4.182651043,-0.1945610493,-9.030040741,12.60308456,23.80378914,8.527848244,-7.225637436,-4.067413807,8.225086212,-7.421782017,-4.023503304,-0.2268743664,-0.01872704737,0.07801383734,0
104,7046,140.9199982,580491,263.8771961,270.6047058,4.346054077,0.03420328721,-9.356846809,12.67429256,20.026371,8.541902542,-7.220376492,-4.069639206,8.225086212,-7.421782017,-4.023503304,-0.2434549928,0.02665151283,0.08499515802,0
104,7047,140.9400024,580491,263.9585889,270.6047058,4.280693054,0.03420328721,-9.749013901,12.85058498,25.54767609,8.559660912,-7.212508678,-4.078782558,8.225086212,-7.421782017,-4.023503304,-0.2312376797,0.05632210895,0.07888650149,0
104,7048,140.9600067,580491,264.0401646,270.6047058,3.921205997,-0.1618804336,-10.10850143,12.70974731,25.54767609,8.574324608,-7.201483727,-4.094660282,8.225086212,-7.421782017,-4.023503304,-0.1684058309,0.08162938803,0.08237715811,0
104,7049,140.9799957,580491,264.1220578,270.6047058,4.215331554,-0.2599222958,-9.8797369,12.85058498,27.43721962,8.579256058,-7.186171055,-4.114655018,8.225086212,-7.421782017,-4.023503304,-0.06368607283,0.08337471634,0.09372179955,0
104,7050,141,580491,264.2043509,270.6047058,4.05192852,-0.1618804336,-9.618291855,13.1717186,31.0719223,8.586827278,-7.177732944,-4.132966995,8.225086212,-7.421782017,-4.023503304,0.005254430231,0.07552073151,0.09721245617,0
104,7051,141.0200043,580491,264.2870102,270.6047058,3.790483475,-0.03115795366,-9.585611343,12.96016884,29.32710648,8.594587326,-7.167424202,-4.145051956,8.225086212,-7.421782017,-4.023503304,0.01398107689,0.09210135788,0.1033211127,0
104,7052,141.0399933,580491,264.3699112,270.6047058,4.084609032,-0.1945610493,-9.585611343,12.94528008,18.13817787,8.600995064,-7.151802063,-4.15423727,8.225086212,-7.421782017,-4.023503304,0.02358038723,0.1147906408,0.09895779192,0
104,7053,141.0599976,580491,264.452996,270.6047058,4.215331554,-0.1291998178,-9.781694412,13.06391239,25.54767609,8.608667374,-7.141809464,-4.166004181,8.225086212,-7.421782017,-4.023503304,0.02358038723,0.1174086332,0.09895779192,0
104,7054,141.0800018,580491,264.5363161,270.6047058,4.084609032,0.03420328721,-10.36994648,12.79041672,21.91490746,8.617983818,-7.130765915,-4.182275772,8.225086212,-7.421782017,-4.023503304,0.0008911071345,0.1156633049,0.09459446371,0
104,7055,141.1000061,580491,264.6199616,270.6047058,4.084609032,-0.06383857131,-10.3045845,12.63873863,21.91490746,8.625279427,-7.111176491,-4.207922459,8.225086212,-7.421782017,-4.023503304,-0.0322701484,0.1095546558,0.0928491354,0
104,7056,141.1199951,580491,264.70412,270.6047058,4.280693054,-0.03115795366,-10.20654297,12.92042828,20.026371,8.631193161,-7.092884064,-4.232502937,8.225086212,-7.421782017,-4.023503304,-0.04361478984,0.07203007489,0.09546712786,0
104,7057,141.1399994,580491,264.7887701,270.6047058,4.378734589,0.2302870005,-10.33726501,13.08358002,25.54767609,8.640235901,-7.077007294,-4.256825924,8.225086212,-7.421782017,-4.023503304,-0.08201203495,0.03712349012,0.08499515802,0
104,7058,141.1600037,580491,264.8739066,270.6047058,4.280693054,-0.03115795366,-10.46798801,12.9303751,27.43721962,8.653544426,-7.057703018,-4.283894062,8.225086212,-7.421782017,-4.023503304,-0.1500798762,-0.00563707808,0.0701598525,0
104,7059,141.1799927,580491,264.9595845,270.6047058,4.11729002,-0.22724168,-10.40262699,13.1179266,23.80378914,8.660923004,-7.039779663,-4.312971592,8.225086212,-7.421782017,-4.023503304,-0.1841138005,-0.06672360003,0.06405120343,0
104,7060,141.1999969,580491,265.0458439,270.6047058,4.05192852,0.03420328721,-10.4353075,12.78036022,34.85336685,8.663284302,-7.023255825,-4.339870453,8.225086212,-7.421782017,-4.023503304,-0.2172750533,-0.1313007772,0.05183389783,0
104,7061,141.2200012,580491,265.1326413,270.6047058,4.149970531,0.06688390672,-10.01045895,12.83056068,18.13817787,8.668170929,-7.002764702,-4.366485119,8.225086212,-7.421782017,-4.023503304,-0.2609082758,-0.2072226107,0.04572524503,0
104,7062,141.2400055,580491,265.219971,270.6047058,4.084609032,-0.1291998178,-9.160762787,13.04914284,31.0719223,8.676587105,-6.986964703,-4.386200428,8.225086212,-7.421782017,-4.023503304,-0.2809795737,-0.2936164141,0.03787126392,0
104,7063,141.2599945,580491,265.307695,270.6047058,4.084609032,0.1976063848,-8.768595695,13.22043037,25.54767609,8.685208321,-6.980020523,-4.390233994,8.225086212,-7.421782017,-4.023503304,-0.2652716041,-0.371283561,0.02129063755,0
104,7064,141.2799988,580491,265.3954997,270.6047058,3.888525486,-0.2926029265,-7.984260559,13.01461411,31.0719223,8.700488091,-6.972642899,-4.386714935,8.225086212,-7.421782017,-4.023503304,-0.2547996342,-0.4192801118,0.01169132628,0
104,7065,141.3000031,580491,265.483234,270.6047058,3.888525486,-0.22724168,-7.101883888,13.04914284,21.91490746,8.710148811,-6.976169109,-4.367849827,8.225086212,-7.421782017,-4.023503304,-0.2565449476,-0.4419693947,0.001219350612,0
104,7066,141.3200073,580491,265.570591,270.6047058,3.855844736,0.3936901093,-6.546313286,12.63873863,27.43721962,8.725286484,-6.98587656,-4.332567215,8.225086212,-7.421782017,-4.023503304,-0.2661442757,-0.4376060665,-0.007507295813,0
104,7067,141.3399963,580491,265.6572424,270.6047058,4.11729002,0.2302870005,-6.317549229,12.86558342,25.54767609,8.751889229,-6.991375923,-4.285996437,8.225086212,-7.421782017,-4.023503304,-0.2966875434,-0.3931001723,-0.01274328306,0
104,7068,141.3600006,580491,265.7429623,270.6047058,3.790483475,-0.06383857131,-5.631256104,12.85058498,27.43721962,8.781052589,-7.005336761,-4.23709774,8.225086212,-7.421782017,-4.023503304,-0.340320766,-0.3389949799,-0.01099795382,0
104,7069,141.3800049,580491,265.8277042,270.6047058,3.888525486,-0.09651919454,-5.141047001,13.08358002,21.91490746,8.805028915,-7.024349213,-4.173093319,8.225086212,-7.421782017,-4.023503304,-0.3909353018,-0.2569645047,-0.01710660569,0
104,7070,141.3999939,580491,265.9111661,270.6047058,4.182651043,0.1976063848,-5.533214092,12.86558342,34.85336685,8.832126617,-7.048972607,-4.100439548,8.225086212,-7.421782017,-4.023503304,-0.4459131956,-0.1513720751,-0.02408792265,0
104,7071,141.4199982,580491,265.9931749,270.6047058,3.725122452,0.09956452996,-5.729298115,12.79544163,38.49067307,8.865385056,-7.072321892,-4.036857605,8.225086212,-7.421782017,-4.023503304,-0.4843104184,-0.04577964917,-0.02059726417,0
104,7072,141.4400024,580491,266.073912,270.6047058,3.725122452,0.03420328721,-5.860020638,12.7602253,27.43721962,8.889791489,-7.091005802,-3.973767996,8.225086212,-7.421782017,-4.023503304,-0.4947823882,0.04148681089,-0.01972460002,0
104,7073,141.4600067,580491,266.1533874,270.6047058,4.05192852,0.06688390672,-6.219507217,12.90549374,18.13817787,8.911925316,-7.110856056,-3.913146019,8.225086212,-7.421782017,-4.023503304,-0.482565105,0.1086819917,-0.01361594815,0
104,7074,141.4799957,580491,266.2316503,270.6047058,3.986567259,0.03420328721,-6.546313286,12.83056068,34.85336685,8.936180115,-7.133599758,-3.861560106,8.225086212,-7.421782017,-4.023503304,-0.4598758221,0.147951901,-0.008379960433,0
104,7075,141.5,580491,266.3088815,270.6047058,3.692441702,0.2302870005,-7.036522865,12.97999382,25.54767609,8.956356049,-7.155050755,-3.815719604,8.225086212,-7.421782017,-4.023503304,-0.4293325543,0.1767498255,-0.007507295813,0
104,7076,141.5200043,580491,266.3851959,270.6047058,3.921205997,-0.03115795366,-7.624773979,13.04914284,34.85336685,8.97162056,-7.168105125,-3.777162552,8.225086212,-7.421782017,-4.023503304,-0.3813360035,0.2064204216,-0.005761966575,0
104,7077,141.5399933,580491,266.4607392,270.6047058,4.149970531,0.03420328721,-8.245705605,12.86558342,29.32710648,8.981815338,-7.185727596,-3.751150131,8.225086212,-7.421782017,-4.023503304,-0.3228674829,0.2090384215,-0.001398643246,0
104,7078,141.5599976,580491,266.5357622,270.6047058,4.019248009,0.09956452996,-9.062721252,13.21556759,27.43721962,8.991158485,-7.202997684,-3.738447189,8.225086212,-7.421782017,-4.023503304,-0.2739982605,0.20031178,0.0003466859926,0
104,7079,141.5800018,580492,267.7805661,274.7172546,3.927907705,-0.126601845,-9.42587471,13.15218353,32.96247482,8.644099236,-7.149418354,-4.26569891,8.488193512,-7.137038231,-4.32348299,-0.2205045819,0.1839153469,0.006005577743,0
104,7080,141.6000061,580492,267.8658801,274.7172546,4.05862999,-0.1592824608,-9.360513687,13.1179266,27.43721962,8.637366295,-7.161589146,-4.273190975,8.488193512,-7.137038231,-4.32348299,-0.1882159859,0.1655893922,0.0103689013,0
104,7081,141.6199951,580492,267.9513439,274.7172546,3.862546444,0.03680125251,-9.55659771,13.1179266,27.43721962,8.631239891,-7.176300049,-4.28036356,8.488193512,-7.137038231,-4.32348299,-0.1681447029,0.1516267508,0.01560488902,0
104,7082,141.6399994,580492,268.0369512,274.7172546,3.927907705,0.1021624953,-9.91608429,13.08358002,27.43721962,8.622943878,-7.184823513,-4.289894581,8.488193512,-7.137038231,-4.32348299,-0.1271294653,0.1463907659,0.01735021733,0
104,7083,141.6600037,580492,268.1227491,274.7172546,4.091310978,0.004120633472,-9.720000267,13.12282562,34.85336685,8.613218307,-7.191732407,-4.306604385,8.488193512,-7.137038231,-4.32348299,-0.1070581749,0.1402821094,0.01385955978,0
104,7084,141.6799927,580492,268.2088812,274.7172546,3.829865694,0.1021624953,-9.621958733,13.28832626,20.026371,8.604837418,-7.202942848,-4.320778847,8.488193512,-7.137038231,-4.32348299,-0.1009495258,0.1271921396,0.01473222394,0
104,7085,141.6999969,580492,268.2952968,274.7172546,3.895226955,0.03680125251,-9.850723267,13.22043037,24.67569542,8.594233513,-7.209665775,-4.331251144,8.488193512,-7.137038231,-4.32348299,-0.1061855108,0.1385367811,0.001642254647,0
104,7086,141.7200012,580492,268.3819218,274.7172546,4.091310978,-0.06124060601,-10.17752934,13.15218353,29.32710648,8.581474304,-7.217133522,-4.346313953,8.488193512,-7.137038231,-4.32348299,-0.1079308465,0.1254468113,-0.0001030745916,0
104,7087,141.7400055,580492,268.4688481,274.7172546,4.091310978,0.134843111,-10.11216831,13.46611595,29.32710648,8.567113876,-7.227080345,-4.368722439,8.488193512,-7.137038231,-4.32348299,-0.1122941673,0.09490355104,-0.01232037973,0
104,7088,141.7599945,580492,268.5562225,274.7172546,3.895226955,0.004120633472,-9.981445312,13.25442219,25.54767609,8.555114746,-7.234360218,-4.390176773,8.488193512,-7.137038231,-4.32348299,-0.09396820515,0.07308693975,-0.01057505049,0
104,7089,141.7799988,580492,268.644026,274.7172546,4.091310978,-0.06124060601,-10.07948685,13.47088814,23.80378914,8.53903389,-7.241697788,-4.407457829,8.488193512,-7.137038231,-4.32348299,-0.08785955608,0.05214298889,-0.009702385403,0
104,7090,141.8000031,580492,268.7321752,274.7172546,3.993268967,0.03680125251,-10.01412582,13.56598568,23.80378914,8.523510933,-7.252170563,-4.427937984,8.488193512,-7.137038231,-4.32348299,-0.07826024294,0.0416710116,-0.01755636744,0
104,7091,141.8200073,580492,268.820734,274.7172546,3.69914341,0.06948187202,-10.07948685,13.57072258,29.32710648,8.508034706,-7.260338306,-4.446566582,8.488193512,-7.137038231,-4.32348299,-0.0695336014,0.01898173057,-0.02541034855,0
104,7092,141.8399963,580492,268.9096653,274.7172546,3.927907705,0.06948187202,-9.948764801,13.28832626,27.43721962,8.488296509,-7.264125824,-4.464085579,8.488193512,-7.137038231,-4.32348299,-0.06167961657,0.005891761743,-0.03326433152,0
104,7093,141.8600006,580492,268.998947,274.7172546,3.927907705,0.2328849733,-9.850723267,13.59911156,28.45480728,8.472210884,-7.271562576,-4.480996609,8.488193512,-7.137038231,-4.32348299,-0.0677882731,-0.02639682963,-0.03675498813,0
104,7094,141.8800049,580492,269.0885669,274.7172546,3.895226955,0.2982462049,-9.850723267,13.32696915,27.43721962,8.458766937,-7.277192116,-4.496365547,8.488193512,-7.137038231,-4.32348299,-0.05469829962,-0.04210479185,-0.04722696543,0
104,7095,141.8999939,580492,269.1784942,274.7172546,3.960588217,0.134843111,-9.491235733,13.32696915,29.32710648,8.445630074,-7.28175211,-4.51157093,8.488193512,-7.137038231,-4.32348299,-0.0494623147,-0.05257676914,-0.05595361069,0
104,7096,141.9199982,580492,269.2687257,274.7172546,3.862546444,0.134843111,-9.327833176,13.6415844,25.54767609,8.433616638,-7.291384697,-4.520420551,8.488193512,-7.137038231,-4.32348299,-0.0494623147,-0.06566673517,-0.06293492764,0
104,7097,141.9400024,580492,269.3591341,274.7172546,3.960588217,0.265565604,-9.099068642,13.43744564,36.74460983,8.421423912,-7.300778389,-4.52548933,8.488193512,-7.137038231,-4.32348299,-0.03811767325,-0.06741206348,-0.06817091256,0
104,7098,141.9600067,580492,269.4496439,274.7172546,3.829865694,0.06948187202,-9.164429665,13.53277779,31.0719223,8.413868904,-7.310817242,-4.527356148,8.488193512,-7.137038231,-4.32348299,-0.02764569782,-0.07090272754,-0.07340690494,0
104,7099,141.9799957,580492,269.540191,274.7172546,3.69914341,0.06948187202,-8.870304108,13.67452812,27.43721962,8.401555061,-7.322169781,-4.529023647,8.488193512,-7.137038231,-4.32348299,-0.01455572806,-0.08486536145,-0.08126088232,0
104,7100,142,580492,269.6307715,274.7172546,3.895226955,0.2002043575,-8.772262573,13.43266106,30.19947815,8.389627457,-7.333361149,-4.524266243,8.488193512,-7.137038231,-4.32348299,0.001152235433,-0.09882799536,-0.08911486715,0
104,7101,142.0200043,580492,269.7212568,274.7172546,4.222033024,0.134843111,-8.902984619,13.6415844,32.96247482,8.382834435,-7.345901489,-4.519461155,8.488193512,-7.137038231,-4.32348299,0.05874809995,-0.1206446066,-0.1004595086,0
104,7102,142.0399933,580492,269.811646,274.7172546,3.862546444,0.1675237268,-8.641539574,13.56598568,31.0719223,8.378746033,-7.363483429,-4.519438744,8.488193512,-7.137038231,-4.32348299,0.1111079752,-0.1538058668,-0.1109314784,0
104,7103,142.0599976,580492,269.9020348,274.7172546,3.535740137,0.1675237268,-8.445456505,13.70270157,21.91490746,8.372555733,-7.377233982,-4.51189661,8.488193512,-7.137038231,-4.32348299,0.1861571372,-0.1773678064,-0.1135494784,0
104,7104,142.0800018,580492,269.9922727,274.7172546,3.927907705,0.2328849733,-8.314733505,13.66982651,25.54767609,8.363988876,-7.387732983,-4.498259544,8.488193512,-7.137038231,-4.32348299,0.2795322537,-0.2122743875,-0.125766784,0
104,7105,142.1000061,580492,270.0822379,274.7172546,3.731823921,0.134843111,-8.184011459,13.73549843,32.96247482,8.363121033,-7.403037548,-4.485315323,8.488193512,-7.137038231,-4.32348299,0.3851246834,-0.2593982816,-0.1344934255,0
104,7106,142.1199951,580492,270.1719442,274.7172546,3.601101398,0.1675237268,-7.628440857,13.84270954,23.80378914,8.360290527,-7.417715073,-4.468327522,8.488193512,-7.137038231,-4.32348299,0.4802451134,-0.2820875645,-0.1423474103,0
104,7107,142.1399994,580492,270.2613108,274.7172546,3.66646266,0.2002043575,-7.465037823,13.73549843,29.32710648,8.361151695,-7.432296753,-4.440161228,8.488193512,-7.137038231,-4.32348299,0.5692569017,-0.2951775193,-0.1571827084,0
104,7108,142.1600037,580492,270.350114,274.7172546,3.927907705,0.03680125251,-7.465037823,13.59911156,32.96247482,8.36590004,-7.447696686,-4.40948391,8.488193512,-7.137038231,-4.32348299,0.6294707656,-0.305649519,-0.1737633348,0
104,7109,142.1799927,580492,270.4383037,274.7172546,3.405017853,0.03680125251,-6.876786709,14.00428009,29.32710648,8.373539925,-7.46856308,-4.380443096,8.488193512,-7.137038231,-4.32348299,0.6748493314,-0.2829602361,-0.1816173196,0
104,7110,142.1999969,580492,270.5259125,274.7172546,3.568420887,-0.126601845,-6.648022175,13.80551338,29.32710648,8.379548073,-7.484484673,-4.336690426,8.488193512,-7.137038231,-4.32348299,0.7123739123,-0.2401996553,-0.1920892894,0
104,7111,142.2200012,580492,270.6126463,274.7172546,3.797185183,0.134843111,-6.746064186,13.76821613,23.80378914,8.388363838,-7.505386829,-4.289620876,8.488193512,-7.137038231,-4.32348299,0.7219732404,-0.1852217913,-0.1877259761,0
104,7112,142.2400055,580492,270.6984388,274.7172546,3.437698364,0.1021624953,-7.007509232,13.83806515,23.80378914,8.405031204,-7.524653912,-4.246080875,8.488193512,-7.137038231,-4.32348299,0.7080105543,-0.1040639803,-0.1868533045,0
104,7113,142.2599945,580492,270.7833604,274.7172546,3.470378876,-0.09392122924,-7.105550766,13.97211552,21.91490746,8.416890144,-7.537515163,-4.204936981,8.488193512,-7.137038231,-4.32348299,0.6783399582,-0.005452878308,-0.180744648,0
104,7114,142.2799988,580492,270.8674591,274.7172546,3.69914341,-0.2246437073,-7.726482868,13.66982651,31.0719223,8.427351952,-7.552100182,-4.165801525,8.488193512,-7.137038231,-4.32348299,0.6259800792,0.04865232855,-0.1720180064,0
104,7115,142.3000031,580492,270.9507751,274.7172546,3.601101398,-0.06124060601,-8.151330948,13.97671509,38.49067307,8.437306404,-7.567358017,-4.13993597,8.488193512,-7.137038231,-4.32348299,0.5535489321,0.09054023027,-0.1598007083,0
104,7116,142.3200073,580492,271.0335739,274.7172546,3.66646266,-0.1592824608,-8.412775993,13.80551338,38.49067307,8.447690964,-7.575562477,-4.121395111,8.488193512,-7.137038231,-4.32348299,0.4636645019,0.1202108264,-0.1493287235,0
104,7117,142.3399963,580492,271.1160018,274.7172546,3.764504671,-0.2900049388,-8.739582062,13.74017715,38.49067307,8.457315445,-7.583278656,-4.108268261,8.488193512,-7.137038231,-4.32348299,0.3711620271,0.1280648112,-0.1353660971,0
104,7118,142.3600006,580492,271.1981671,274.7172546,3.829865694,-0.1919630915,-8.902984619,13.90756321,26.56507874,8.465611458,-7.591052055,-4.102054596,8.488193512,-7.137038231,-4.32348299,0.2926222086,0.1446454376,-0.1214034557,0
104,7119,142.3800049,580492,271.2802082,274.7172546,3.731823921,-0.2900049388,-9.229791641,13.70270157,29.32710648,8.476031303,-7.596395969,-4.099294662,8.488193512,-7.137038231,-4.32348299,0.2411350012,0.1533720791,-0.1039501652,0
104,7120,142.3999939,580492,271.3621941,274.7172546,3.731823921,-0.4207274318,-9.42587471,13.59911156,31.0719223,8.482727051,-7.598783493,-4.10208559,8.488193512,-7.137038231,-4.32348299,0.1913931221,0.1542447507,-0.08736953884,0
104,7121,142.4199982,580492,271.4442358,274.7172546,3.895226955,-0.2246437073,-9.491235733,13.70270157,29.32710648,8.486833572,-7.600773811,-4.108683586,8.488193512,-7.137038231,-4.32348299,0.1381605864,0.1507540941,-0.06991624832,0
104,7122,142.4400024,580492,271.5264095,274.7172546,3.797185183,-0.2246437073,-9.654639244,13.67452812,31.0719223,8.495718956,-7.601203442,-4.117448807,8.488193512,-7.137038231,-4.32348299,0.08667337149,0.143772766,-0.057698939,0
104,7123,142.4600067,580492,271.6087585,274.7172546,3.69914341,-0.3880468011,-9.850723267,13.59911156,31.0719223,8.502652168,-7.598532677,-4.128574848,8.488193512,-7.137038231,-4.32348299,0.05962076411,0.1333007962,-0.03588232398,0
104,7124,142.4799957,580492,271.69133,274.7172546,3.69914341,-0.4207274318,-10.17752934,13.84270954,27.43721962,8.504924774,-7.594807148,-4.142840385,8.488193512,-7.137038231,-4.32348299,0.02820483968,0.1298101395,-0.01668370329,0
104,7125,142.5,580492,271.7741868,274.7172546,3.797185183,-0.3226855695,-10.17752934,13.66982651,31.0719223,8.505203247,-7.588941097,-4.16322279,8.488193512,-7.137038231,-4.32348299,0.0186055284,0.1298101395,-0.0009757392108,0
104,7126,142.5200043,580492,271.8574512,274.7172546,3.960588217,-0.2246437073,-10.07948685,13.70270157,25.54767609,8.50788784,-7.582674503,-4.184187889,8.488193512,-7.137038231,-4.32348299,0.005515558645,0.1306827962,0.007750906982,0
104,7127,142.5399933,580492,271.941135,274.7172546,3.69914341,-0.2246437073,-10.30825138,14.00886822,36.74460983,8.514163017,-7.57753706,-4.204396725,8.488193512,-7.137038231,-4.32348299,-0.01455572806,0.1228288189,0.02345887013,0
104,7128,142.5599976,580492,272.0252229,274.7172546,3.568420887,-0.3226855695,-10.40629387,13.70739174,31.0719223,8.515945435,-7.566888332,-4.226933956,8.488193512,-7.137038231,-4.32348299,-0.02415503934,0.1141021773,0.03567617387,0
104,7129,142.5800018,580493,272.702454,278.8580627,3.89361763,-0.2217767239,-10.2413187,13.71208,20.026371,8.443834305,-8.070695877,-4.073778629,8.349779129,-8.151364326,-3.995864868,-0.02907109819,0.1108970121,0.0397621654,0
104,7130,142.6000061,580493,272.7839296,278.8580627,3.89361763,-0.3198185861,-10.11059666,13.76821613,29.32710648,8.446746826,-8.064702988,-4.096572399,8.349779129,-8.151364326,-3.995864868,-0.04216106609,0.1100243479,0.05023413897,0
104,7131,142.6199951,580493,272.865861,278.8580627,3.697533846,-0.1564154923,-10.27399921,13.6415844,23.80378914,8.448408127,-8.060503006,-4.11702776,8.349779129,-8.151364326,-3.995864868,-0.02907109819,0.1056610271,0.05023413897,0
104,7132,142.6399994,580493,272.9482016,278.8580627,3.828256369,-0.1564154923,-10.30667973,13.67452812,28.45480728,8.448872566,-8.05018425,-4.138907909,8.349779129,-8.151364326,-3.995864868,-0.01510846335,0.1074063554,0.06594210118,0
104,7133,142.6600037,580493,273.0309797,278.8580627,3.89361763,-0.2217767239,-10.33936024,13.83806515,31.0719223,8.450526237,-8.041118622,-4.162350655,8.349779129,-8.151364326,-3.995864868,-0.01598112844,0.1056610271,0.07903207093,0
104,7134,142.6799927,580493,273.1142268,278.8580627,3.697533846,-0.1564154923,-10.27399921,13.81016827,29.32710648,8.451623917,-8.033243179,-4.186935902,8.349779129,-8.151364326,-3.995864868,-0.01074514072,0.1056610271,0.08339539915,0
104,7135,142.6999969,580493,273.1979655,278.8580627,3.730214357,-0.3524992168,-10.40472221,13.66982651,32.96247482,8.451184273,-8.021883011,-4.208764553,8.349779129,-8.151364326,-3.995864868,0.00321749365,0.1056610271,0.09037671238,0
104,7136,142.7200012,580493,273.2821408,278.8580627,3.958978891,-0.3851798177,-10.50276375,13.74017715,27.43721962,8.447453499,-8.012428284,-4.233426571,8.349779129,-8.151364326,-3.995864868,0.007580816746,0.09606171399,0.09561270475,0
104,7137,142.7400055,580493,273.3668093,278.8580627,3.958978891,-0.1237348691,-10.60080528,13.77288342,32.96247482,8.445547104,-8.005420685,-4.261644363,8.349779129,-8.151364326,-3.995864868,0.0206707865,0.09693437815,0.09910336137,0
104,7138,142.7599945,580493,273.4520422,278.8580627,3.86093688,-0.1564154923,-10.69884777,13.70739174,32.96247482,8.446866035,-7.993813992,-4.291395187,8.349779129,-8.151364326,-3.995864868,0.04423272982,0.08995306492,0.09823069721,0
104,7139,142.7799988,580493,273.5378701,278.8580627,3.89361763,-0.3851798177,-10.89493084,13.67452812,29.32710648,8.445879936,-7.980260849,-4.322214127,8.349779129,-8.151364326,-3.995864868,0.05819536373,0.0855897367,0.1017213538,0
104,7140,142.8000031,580493,273.6243144,278.8580627,3.86093688,-0.1564154923,-10.76420879,13.76821613,32.96247482,8.441064835,-7.968506336,-4.357109547,8.349779129,-8.151364326,-3.995864868,0.07564865798,0.08122641593,0.1017213538,0
104,7141,142.8200073,580493,273.7114566,278.8580627,3.926298141,-0.05837362632,-10.60080528,13.76821613,32.96247482,8.43978405,-7.953455925,-4.389065266,8.349779129,-8.151364326,-3.995864868,0.1018285975,0.08995306492,0.1052120104,0
104,7142,142.8399963,580493,273.7992379,278.8580627,3.89361763,-0.1890961081,-10.63348579,13.59911156,31.0719223,8.441618919,-7.938360691,-4.418367386,8.349779129,-8.151364326,-3.995864868,0.1131732389,0.08646240085,0.1095753387,0
104,7143,142.8600006,580493,273.8876052,278.8580627,3.762895107,-0.1890961081,-10.50276375,13.77288342,29.32710648,8.441138268,-7.923718452,-4.448122978,8.349779129,-8.151364326,-3.995864868,0.1227725446,0.09169839323,0.1121933311,0
104,7144,142.8800049,580493,273.9765677,278.8580627,3.89361763,0.1050294712,-10.60080528,13.46611595,31.0719223,8.43975544,-7.9074893,-4.474410057,8.349779129,-8.151364326,-3.995864868,0.1306265295,0.1004250348,0.1095753387,0
104,7145,142.8999939,580493,274.0660559,278.8580627,3.86093688,0.07234885544,-10.53544426,13.59911156,31.0719223,8.444107056,-7.887514114,-4.503077507,8.349779129,-8.151364326,-3.995864868,0.1088099107,0.1065336913,0.1078300029,0
104,7146,142.9199982,580493,274.1561174,278.8580627,3.926298141,0.1050294712,-10.79688931,13.76821613,32.96247482,8.44806385,-7.867168903,-4.530255795,8.349779129,-8.151364326,-3.995864868,0.06517668068,0.09431638569,0.1060846746,0
104,7147,142.9400024,580493,274.2467225,278.8580627,4.024340153,0.3011131883,-10.69884777,13.53277779,28.45480728,8.452288628,-7.844706059,-4.562618256,8.349779129,-8.151364326,-3.995864868,0.04772339016,0.08209908009,0.1052120104,0
104,7148,142.9600067,580493,274.3379749,278.8580627,3.89361763,0.203071326,-10.73152828,13.53277779,36.74460983,8.461087227,-7.820833683,-4.593611717,8.349779129,-8.151364326,-3.995864868,0.02416144498,0.06028246507,0.09124937654,0
104,7149,142.9799957,580493,274.4298471,278.8580627,3.958978891,0.07234885544,-10.60080528,13.80551338,32.96247482,8.46661377,-7.79588604,-4.624254227,8.349779129,-8.151364326,-3.995864868,0.02503410913,0.03322986141,0.07641407847,0
104,7150,143,580493,274.5223322,278.8580627,4.057020664,0.1377100945,-10.3720417,13.76821613,31.0719223,8.471693993,-7.774090767,-4.653188705,8.349779129,-8.151364326,-3.995864868,0.01107147522,0.01577656902,0.06594210118,0
104,7151,143.0200043,580493,274.615396,278.8580627,3.958978891,0.1050294712,-10.2413187,13.40391827,28.45480728,8.480097771,-7.753920555,-4.678596497,8.349779129,-8.151364326,-3.995864868,-0.0247077737,-0.01127603464,0.051979471,0
104,7152,143.0399933,580493,274.7089679,278.8580627,3.599492073,-0.09105424583,-10.11059666,13.80085659,34.85336685,8.487390518,-7.733678818,-4.70086813,8.349779129,-8.151364326,-3.995864868,-0.08143097162,-0.04880061373,0.0415074937,0
104,7153,143.0599976,580493,274.8029853,278.8580627,3.828256369,0.07234885544,-9.979873657,13.70270157,29.32710648,8.48774147,-7.712512016,-4.718194008,8.349779129,-8.151364326,-3.995864868,-0.1032475904,-0.08545252681,0.03103551827,0
104,7154,143.0800018,580493,274.8973492,278.8580627,4.155062675,0.1703907102,-9.881832123,13.70270157,32.96247482,8.494003296,-7.693201065,-4.734731674,8.349779129,-8.151364326,-3.995864868,-0.1259368658,-0.1229771078,0.01270956174,0
104,7155,143.1000061,580493,274.9920438,278.8580627,3.828256369,0.00698761316,-9.391622543,13.66982651,32.96247482,8.50643158,-7.67784977,-4.751963615,8.349779129,-8.151364326,-3.995864868,-0.1529894769,-0.1447937191,0.004855580162,0
104,7156,143.1199951,580493,275.0870831,278.8580627,3.664853334,0.00698761316,-9.097496986,13.59911156,34.85336685,8.514457703,-7.664553165,-4.757926464,8.349779129,-8.151364326,-3.995864868,-0.1547348052,-0.129958421,0.008346239105,0
104,7157,143.1399994,580493,275.1822416,278.8580627,3.991659403,-0.05837362632,-8.901412964,13.59911156,32.96247482,8.521665573,-7.651904583,-4.757264137,8.349779129,-8.151364326,-3.995864868,-0.1564801335,-0.1133777946,-0.007361724507,0
104,7158,143.1600037,580493,275.2773869,278.8580627,3.762895107,-0.05837362632,-8.836051941,13.76821613,32.96247482,8.533143997,-7.646353245,-4.755679131,8.349779129,-8.151364326,-3.995864868,-0.1564801335,-0.07672588527,-0.009979718365,0
104,7159,143.1799927,580493,275.3725005,278.8580627,3.664853334,-0.09105424583,-8.509245872,13.63687229,32.96247482,8.541787148,-7.639008522,-4.75114584,8.349779129,-8.151364326,-3.995864868,-0.1398995072,-0.02698399872,-0.008234389126,0
104,7160,143.1999969,580493,275.4675234,278.8580627,3.991659403,-0.09105424583,-8.672649384,13.70270157,38.49067307,8.549973488,-7.633536816,-4.739911079,8.349779129,-8.151364326,-3.995864868,-0.1364088506,0.02188522182,-0.0003804076114,0
104,7161,143.2200012,580493,275.5623216,278.8580627,3.730214357,0.07234885544,-8.901412964,13.82877254,29.32710648,8.561470032,-7.631641388,-4.73422718,8.349779129,-8.151364326,-3.995864868,-0.150371477,0.06028246507,0.00747357402,0
104,7162,143.2400055,580493,275.6570062,278.8580627,3.534130812,-0.1237348691,-9.064816475,13.73549843,30.19947815,8.570343971,-7.622953892,-4.730580807,8.349779129,-8.151364326,-3.995864868,-0.1669521034,0.1021703631,0.009218903258,0
104,7163,143.2599945,580493,275.7516178,278.8580627,3.762895107,-0.09105424583,-9.424303055,13.63687229,30.19947815,8.572520256,-7.613706112,-4.728672504,8.349779129,-8.151364326,-3.995864868,-0.1721881032,0.1309683025,0.01358222682,0
104,7164,143.2799988,580493,275.8461912,278.8580627,3.762895107,-0.05837362632,-9.620387077,13.80551338,30.19947815,8.575766563,-7.604837418,-4.735135555,8.349779129,-8.151364326,-3.995864868,-0.187896058,0.1231143177,0.02056354284,0
104,7165,143.3000031,580493,275.9408939,278.8580627,3.664853334,0.00698761316,-9.849151611,13.56598568,32.96247482,8.577693939,-7.594368458,-4.745186806,8.349779129,-8.151364326,-3.995864868,-0.1896413863,0.1187509969,0.01969087869,0
104,7166,143.3200073,580493,276.0357977,278.8580627,4.024340153,-0.1237348691,-10.01255417,13.55176353,36.74460983,8.577254295,-7.580452919,-4.758623123,8.349779129,-8.151364326,-3.995864868,-0.1686974317,0.09693437815,0.02056354284,0
104,7167,143.3399963,580493,276.1309701,278.8580627,3.991659403,-0.02569300681,-10.01255417,13.90294075,31.0719223,8.57804966,-7.572119236,-4.778015614,8.349779129,-8.151364326,-3.995864868,-0.1529894769,0.05504647642,0.01969087869,0
104,7168,143.3600006,580493,276.2265305,278.8580627,3.632172585,0.07234885544,-9.947193146,13.2058363,30.19947815,8.579044342,-7.562142849,-4.797080994,8.349779129,-8.151364326,-3.995864868,-0.1346635222,0.03235719725,0.01532755606,0
104,7169,143.3800049,580493,276.3224721,278.8580627,3.664853334,-0.2871379554,-9.8164711,13.66982651,34.85336685,8.576414108,-7.54685545,-4.812028885,8.349779129,-8.151364326,-3.995864868,-0.1093562394,0.01752189733,0.01620022021,0
104,7170,143.3999939,580493,276.4187127,278.8580627,3.89361763,-0.1237348691,-9.783790588,13.82877254,34.85336685,8.569402695,-7.53815937,-4.825095177,8.349779129,-8.151364326,-3.995864868,-0.08666696399,-0.003422053065,0.01183689758,0
104,7171,143.4199982,580493,276.5152146,278.8580627,3.762895107,0.00698761316,-9.620387077,13.54701996,36.74460983,8.567554474,-7.530470848,-4.83928299,8.349779129,-8.151364326,-3.995864868,-0.05263304338,-0.01563935727,0.01445489097,0
104,7172,143.4400024,580493,276.6120002,278.8580627,3.86093688,-0.05837362632,-9.358942032,13.56598568,32.96247482,8.566457748,-7.520478725,-4.849360943,8.349779129,-8.151364326,-3.995864868,-0.01074514072,-0.01389402896,0.01445489097,0
104,7173,143.4600067,580493,276.7089874,278.8580627,3.86093688,-0.1237348691,-9.32626152,13.65571308,34.85336685,8.567058563,-7.514395237,-4.855473042,8.349779129,-8.151364326,-3.995864868,-0.001145829563,-0.02000268176,0.01707288437,0
104,7174,143.4799957,580493,276.8060969,278.8580627,3.828256369,0.0396682322,-9.228219986,13.60856152,44.02182388,8.566946983,-7.509492397,-4.86102581,8.349779129,-8.151364326,-3.995864868,0.005835487507,-0.006912711542,0.01270956174,0
104,7175,143.5,580493,276.9033174,278.8580627,3.795575619,-0.1564154923,-9.032135963,13.48519611,36.74460983,8.569280624,-7.502465725,-4.864425659,8.349779129,-8.151364326,-3.995864868,-0.01161780488,0.009667916223,0.01183689758,0
104,7176,143.5200043,580493,277.0006059,278.8580627,3.599492073,-0.1237348691,-9.097496986,13.5849247,34.85336685,8.569529533,-7.498984814,-4.864084244,8.349779129,-8.151364326,-3.995864868,-0.04041573778,0.01839456335,0.01358222682,0
104,7177,143.5399933,580493,277.0978876,278.8580627,3.762895107,0.00698761316,-9.424303055,13.51852036,36.74460983,8.567239761,-7.492158413,-4.863361359,8.349779129,-8.151364326,-3.995864868,-0.04739705473,0.03584785387,0.01358222682,0
104,7178,143.5599976,580493,277.1951549,278.8580627,3.795575619,-0.09105424583,-9.358942032,13.58965588,49.55593109,8.567062378,-7.483627319,-4.869857311,8.349779129,-8.151364326,-3.995864868,-0.04565172642,0.0375931859,0.01707288437,0
104,7179,143.5800018,580494,277.5258062,282.9561462,3.856150866,-0.1836058944,-9.549596786,13.72613621,36.74460983,8.455391884,-8.124036789,-4.304094315,8.377487183,-8.225964546,-4.148388863,-0.02535416,0.03167347237,0.0255277101,0
104,7180,143.6000061,580494,277.611888,282.9561462,3.888831615,-0.1509252787,-9.745679855,13.37991905,38.49067307,8.451896667,-8.121539116,-4.313777924,8.377487183,-8.225964546,-4.148388863,0.005189102143,0.04650877044,0.02727304026,0
104,7181,143.6199951,580494,277.6981636,282.9561462,3.954192877,-0.1509252787,-10.07248688,13.44700909,38.49067307,8.448049545,-8.117835045,-4.327310085,8.377487183,-8.225964546,-4.148388863,0.01129775494,0.05349008739,0.02814570442,0
104,7182,143.6399994,580494,277.7847098,282.9561462,3.692747831,-0.2816477418,-10.07248688,13.48519611,47.80799866,8.443147659,-8.112950325,-4.347357273,8.377487183,-8.225964546,-4.148388863,-0.0270994883,0.03690946102,0.0255277101,0
104,7183,143.6600037,580494,277.8716569,282.9561462,3.823470354,0.0124778254,-10.23588943,13.48519611,32.96247482,8.432803154,-8.106571198,-4.365367889,8.377487183,-8.225964546,-4.148388863,-0.04368011653,0.02905547805,0.02727304026,0
104,7184,143.6799927,580494,277.9589643,282.9561462,4.019554138,0.1758809239,-10.23588943,13.66512394,27.43721962,8.427110672,-8.096484184,-4.387314796,8.377487183,-8.225964546,-4.148388863,-0.04368011653,0.02556481957,0.02989103273,0
104,7185,143.6999969,580494,278.0467106,282.9561462,3.725428343,-0.02020279504,-10.1378479,13.54701996,36.74460983,8.426109314,-8.086393356,-4.410765648,8.377487183,-8.225964546,-4.148388863,-0.03582613543,0.008984192275,0.03076369874,0
104,7186,143.7200012,580494,278.1349259,282.9561462,3.823470354,0.1432003081,-10.26856995,13.72145176,36.74460983,8.418838501,-8.076173782,-4.43013525,8.377487183,-8.225964546,-4.148388863,-0.02797215432,0.0002575458202,0.01854639314,0
104,7187,143.7400055,580494,278.2235286,282.9561462,3.823470354,-0.02020279504,-10.26856995,13.66512394,36.74460983,8.41425705,-8.064053535,-4.452636719,8.377487183,-8.225964546,-4.148388863,-0.02360882983,-0.01457775291,0.01069241203,0
104,7188,143.7599945,580494,278.3125813,282.9561462,3.692747831,-0.1182446554,-9.941763878,13.31249142,40.3825798,8.40742588,-8.054421425,-4.475184441,8.377487183,-8.225964546,-4.148388863,-0.0270994883,-0.0355217047,0.007201753091,0
104,7189,143.7799988,580494,278.402085,282.9561462,3.856150866,0.0124778254,-9.941763878,13.55650616,42.1292572,8.399360657,-8.046549797,-4.490726471,8.377487183,-8.225964546,-4.148388863,-0.01575484872,-0.0477390103,0.007201753091,0
104,7190,143.8000031,580494,278.4918996,282.9561462,3.856150866,-0.02020279504,-9.647638321,13.28348827,40.3825798,8.395331383,-8.038907051,-4.507540226,8.377487183,-8.225964546,-4.148388863,0.003443773137,-0.05384765938,0.009819746949,0
104,7191,143.8200073,580494,278.5820504,282.9561462,3.758109093,-0.1509252787,-9.516916275,13.42308712,32.96247482,8.392666817,-8.033533096,-4.518969059,8.377487183,-8.225964546,-4.148388863,0.001698443783,-0.05210233107,0.005456423853,0
104,7192,143.8399963,580494,278.6724297,282.9561462,3.692747831,-0.02020279504,-9.353512764,13.53277779,32.96247482,8.387839317,-8.029745102,-4.527260303,8.377487183,-8.225964546,-4.148388863,0.005189102143,-0.04337568581,0.005456423853,0
104,7193,143.8600006,580494,278.7629749,282.9561462,3.856150866,0.04515844584,-9.288151741,13.69331741,34.85336685,8.384963989,-8.024238586,-4.532006264,8.377487183,-8.225964546,-4.148388863,0.001698443783,-0.02854038775,0.009819746949,0
104,7194,143.8800049,580494,278.8536151,282.9561462,3.856150866,-0.02020279504,-9.582277298,13.48996162,40.3825798,8.385726929,-8.020209312,-4.536822796,8.377487183,-8.225964546,-4.148388863,-0.010518861,-0.02679505758,0.01069241203,0
104,7195,143.8999939,580494,278.9443515,282.9561462,3.725428343,-0.02020279504,-9.48423481,13.62272453,32.08987045,8.384045601,-8.015615463,-4.547067165,8.377487183,-8.225964546,-4.148388863,-0.02884481847,-0.03115838021,0.00807441771,0
104,7196,143.9199982,580494,279.0352929,282.9561462,3.954192877,0.07783906907,-9.222790718,13.65571308,33.83515167,8.381189346,-8.010046959,-4.554484844,8.377487183,-8.225964546,-4.148388863,-0.04542544484,-0.02679505758,0.006329088472,0
104,7197,143.9400024,580494,279.1263826,282.9561462,3.888831615,0.1105196849,-8.732581139,13.59911156,44.02182388,8.384302139,-8.007388115,-4.558863163,8.377487183,-8.225964546,-4.148388863,-0.07422337681,-0.01981374063,0.01156507619,0
104,7198,143.9600067,580494,279.2175598,282.9561462,3.594706059,0.04515844584,-8.373094559,13.65571308,38.49067307,8.389708519,-8.00627327,-4.553703308,8.377487183,-8.225964546,-4.148388863,-0.08120469749,0.00811152719,0.01156507619,0
104,7199,143.9799957,580494,279.3086339,282.9561462,3.888831615,0.07783906907,-8.177010536,13.70270157,42.1292572,8.392134666,-8.004689217,-4.539644718,8.377487183,-8.225964546,-4.148388863,-0.08033203334,0.02294682525,0.01331040543,0
104,7200,144,580494,279.3994268,282.9561462,4.150276661,-0.02020279504,-8.536497116,13.59911156,32.96247482,8.399972916,-8.00743103,-4.524273872,8.377487183,-8.225964546,-4.148388863,-0.07596870512,0.01422017999,0.01680106483,0
104,7201,144.0200043,580494,279.4899123,282.9561462,3.856150866,0.0124778254,-8.275052071,13.80551338,34.85336685,8.407814026,-8.013041496,-4.517587662,8.377487183,-8.225964546,-4.148388863,-0.05938807875,-0.006723771337,0.02465504594,0
104,7202,144.0399933,580494,279.580264,282.9561462,4.05223465,0.04515844584,-8.078969002,13.76821613,38.49067307,8.413354874,-8.016095161,-4.503786564,8.377487183,-8.225964546,-4.148388863,-0.03669879958,-0.03464904055,0.03599968553,0
104,7203,144.0599976,580494,279.6703398,282.9561462,4.248318195,-0.05288341641,-7.882884979,13.39912224,44.02182388,8.42307663,-8.022223473,-4.48790884,8.377487183,-8.225964546,-4.148388863,-0.007028202526,-0.07391894609,0.04123567417,0
104,7204,144.0800018,580494,279.7600979,282.9561462,3.790789604,0.07783906907,-7.359994888,13.65571308,44.02182388,8.435385704,-8.033368111,-4.469955921,8.377487183,-8.225964546,-4.148388863,0.009552425705,-0.1053348705,0.05607097223,0
104,7205,144.1000061,580494,279.849497,282.9561462,3.725428343,0.0124778254,-7.000508308,13.66982651,32.96247482,8.446354866,-8.039858818,-4.438769341,8.377487183,-8.225964546,-4.148388863,0.03398703411,-0.1384961307,0.06828827411,0
104,7206,144.1199951,580494,279.9382724,282.9561462,4.019554138,0.1432003081,-7.098549843,13.27864838,37.6176033,8.457947731,-8.048552513,-4.400427341,8.377487183,-8.225964546,-4.148388863,0.04184101522,-0.1734027117,0.07788758725,0
104,7207,144.1399994,580494,280.026281,282.9561462,3.725428343,-0.0855640322,-6.641021252,13.57072258,44.89543533,8.475251198,-8.058503151,-4.366098881,8.377487183,-8.225964546,-4.148388863,0.05231299251,-0.2048186362,0.08312357217,0
104,7208,144.1600037,580494,280.113603,282.9561462,3.954192877,0.04515844584,-6.314215183,13.45178795,36.74460983,8.48859024,-8.070853233,-4.32103157,8.377487183,-8.225964546,-4.148388863,0.06278496981,-0.230125919,0.08486890793,0
104,7209,144.1799927,580494,280.2000236,282.9561462,4.05223465,0.1758809239,-6.60834074,13.43266106,32.96247482,8.509302139,-8.085916519,-4.271540165,8.377487183,-8.225964546,-4.148388863,0.06365763396,-0.2536878586,0.08574157208,0
104,7210,144.1999969,580494,280.2854544,282.9561462,3.62738657,0.04515844584,-6.346895695,13.56598568,40.3825798,8.532200813,-8.098936081,-4.228083134,8.377487183,-8.225964546,-4.148388863,0.05231299251,-0.2728864849,0.09359554946,0
104,7211,144.2200012,580494,280.3700161,282.9561462,4.019554138,0.1758809239,-6.020089626,13.59911156,34.85336685,8.549596786,-8.110350609,-4.176524639,8.377487183,-8.225964546,-4.148388863,0.05493098497,-0.2781224847,0.09359554946,0
104,7212,144.2400055,580494,280.4535465,282.9561462,4.117595673,0.2085615396,-6.314215183,13.59911156,41.40143967,8.576743126,-8.126521111,-4.121571541,8.377487183,-8.225964546,-4.148388863,0.06103963777,-0.2973210812,0.08312357217,0
104,7213,144.2599945,580494,280.535978,282.9561462,3.562025309,-0.05288341641,-5.889367104,13.66982651,40.3825798,8.604949951,-8.142239571,-4.072615147,8.377487183,-8.225964546,-4.148388863,0.07412961125,-0.3043023944,0.07963291556,0
104,7214,144.2799988,580494,280.6174303,282.9561462,3.888831615,0.1758809239,-5.268435478,13.63687229,42.1292572,8.624844551,-8.157574654,-4.011683464,8.377487183,-8.225964546,-4.148388863,0.1064181998,-0.3121563792,0.08399624377,0
